File: dtsa2/DemoSpectra/K411-K412/CaF2 std.msa
#FORMAT      : EMSA/MAS Spectral Data File
#VERSION     : 1.0
#TITLE       : Bruker AXS spectrum CaF2
#DATE        : 29-JUL-2008
#TIME        : 10:19
#OWNER       : Bruker AXS
#NPOINTS     : 4096
#NCOLUMNS    : 4
#XUNITS      : eV
#YUNITS      : counts
#DATATYPE    : Y
#XPERCHAN    : 5.00409
#OFFSET      : -477.824
#BEAMKV      : 15
#SIGNALTYPE  : EDS
#ELEVANGLE   : 40
#AZIMANGLE   : 180
#LIVETIME    : 59.358
#REALTIME    : 62.941
#PROBECUR    : 2.5
#TAUWIND     : 0
#TDEADLYR    : 0.00001
#TACTLYR     : 0.045
#TALWIND     : 0.003
#CHOFFSET    : 0.0
#XLABEL      : Energy (eV)
#YLABEL      : Counts
#EDSDET      : SDDUTW
##D2STDCMP   : CaF2,(F:48.6667),(Ca:51.3333),5.0
#SPECTRUM    :
0, 0, 0, 0,
0, 0, 0, 0,
0, 0, 0, 0,
0, 0, 0, 0,
0, 0, 0, 0,
0, 0, 0, 0,
0, 0, 0, 0,
0, 0, 0, 0,
0, 0, 0, 0,
0, 0, 0, 0,
0, 0, 0, 0,
0, 0, 0, 0,
0, 0, 0, 0,
0, 0, 0, 0,
0, 0, 0, 0,
0, 0, 0, 0,
0, 0, 0, 0,
0, 0, 0, 0,
0, 0, 0, 0,
0, 0, 0, 0,
1, 2, 8, 45,
137, 453, 1306, 3095,
6956, 14363, 25811, 42769,
62698, 83136, 98678, 103905,
99155, 85618, 66602, 46433,
29555, 16914, 8520, 3719,
1299, 287, 46, 36,
0, 0, 0, 0,
14, 42, 70, 89,
94, 93, 90, 87,
82, 82, 76, 82,
79, 85, 92, 98,
106, 114, 117, 122,
126, 135, 153, 171,
192, 213, 243, 279,
322, 375, 442, 529,
641, 762, 898, 1050,
1192, 1319, 1391, 1421,
1411, 1346, 1276, 1163,
1068, 969, 867, 791,
707, 653, 635, 593,
550, 528, 486, 438,
370, 324, 275, 244,
220, 183, 168, 159,
147, 154, 164, 153,
166, 159, 153, 161,
174, 170, 177, 167,
156, 182, 180, 194,
224, 237, 229, 230,
244, 285, 275, 284,
289, 328, 297, 367,
280, 306, 294, 267,
331, 362, 390, 390,
504, 497, 563, 692,
849, 1080, 1450, 1832,
2478, 3376, 4675, 6120,
7880, 10002, 12469, 14931,
17004, 18468, 19734, 19877,
19201, 17666, 15572, 13484,
10878, 8352, 6166, 4411,
3184, 2203, 1405, 887,
624, 404, 340, 290,
237, 230, 243, 250,
246, 205, 236, 233,
248, 248, 213, 274,
258, 241, 250, 296,
279, 284, 286, 258,
288, 262, 266, 253,
310, 313, 280, 332,
299, 316, 330, 321,
337, 336, 347, 313,
334, 351, 370, 341,
350, 369, 355, 338,
359, 362, 381, 336,
355, 400, 364, 380,
378, 423, 413, 436,
404, 396, 395, 438,
436, 417, 406, 386,
438, 414, 404, 421,
429, 405, 443, 437,
427, 449, 438, 467,
463, 438, 433, 435,
440, 499, 474, 465,
480, 426, 475, 451,
504, 503, 492, 499,
480, 483, 500, 492,
446, 445, 471, 523,
510, 482, 490, 470,
484, 523, 462, 496,
520, 489, 509, 497,
505, 515, 516, 488,
515, 520, 543, 490,
519, 507, 500, 509,
513, 483, 527, 490,
503, 511, 542, 536,
499, 486, 488, 481,
518, 517, 487, 491,
547, 519, 534, 519,
507, 518, 529, 538,
500, 517, 499, 522,
502, 533, 532, 513,
498, 498, 489, 465,
522, 478, 467, 514,
475, 509, 474, 522,
473, 470, 499, 473,
514, 492, 475, 469,
498, 502, 457, 485,
481, 508, 494, 460,
501, 526, 504, 492,
495, 533, 471, 499,
491, 497, 486, 516,
520, 489, 522, 540,
518, 510, 498, 549,
499, 508, 518, 490,
477, 510, 507, 478,
505, 530, 509, 502,
508, 466, 504, 494,
493, 461, 457, 482,
482, 440, 478, 433,
427, 402, 455, 472,
480, 515, 467, 476,
479, 468, 519, 468,
519, 443, 482, 507,
503, 474, 454, 509,
483, 480, 423, 482,
432, 462, 437, 416,
427, 437, 447, 411,
457, 451, 456, 435,
419, 476, 399, 439,
428, 410, 440, 455,
450, 400, 431, 417,
452, 448, 418, 416,
443, 423, 464, 431,
406, 469, 411, 372,
417, 440, 422, 396,
430, 389, 399, 420,
413, 413, 399, 398,
396, 430, 382, 418,
420, 423, 401, 404,
371, 408, 419, 391,
414, 416, 377, 371,
379, 391, 357, 389,
415, 391, 394, 395,
387, 372, 385, 375,
382, 409, 336, 398,
370, 411, 355, 417,
392, 366, 363, 385,
381, 377, 394, 408,
367, 393, 381, 388,
385, 382, 371, 366,
343, 371, 400, 346,
341, 362, 366, 384,
389, 377, 345, 389,
400, 368, 375, 410,
359, 381, 328, 369,
323, 381, 374, 409,
334, 347, 333, 359,
347, 382, 351, 328,
355, 390, 356, 347,
326, 352, 361, 341,
360, 339, 347, 355,
365, 311, 325, 332,
342, 347, 322, 342,
379, 329, 352, 369,
332, 323, 325, 341,
359, 327, 332, 360,
366, 350, 379, 343,
366, 311, 317, 317,
363, 349, 317, 318,
343, 333, 338, 318,
323, 331, 325, 322,
336, 336, 315, 310,
290, 327, 331, 296,
326, 362, 324, 299,
325, 325, 319, 353,
334, 293, 289, 314,
309, 313, 323, 316,
310, 311, 333, 318,
291, 287, 343, 292,
311, 301, 323, 318,
327, 311, 318, 304,
302, 275, 289, 286,
308, 297, 290, 285,
314, 322, 295, 293,
308, 314, 305, 308,
308, 330, 292, 318,
336, 315, 305, 306,
290, 254, 301, 289,
296, 296, 276, 283,
299, 262, 281, 281,
309, 284, 256, 281,
284, 276, 278, 232,
291, 240, 266, 250,
273, 273, 287, 277,
292, 287, 279, 271,
261, 270, 253, 278,
290, 281, 272, 285,
286, 313, 302, 288,
282, 313, 324, 319,
304, 327, 373, 344,
378, 374, 444, 436,
448, 467, 544, 550,
637, 710, 882, 955,
1157, 1420, 1631, 2135,
2556, 3103, 3840, 4762,
5386, 6564, 7812, 8916,
10500, 11984, 13465, 14739,
16269, 17823, 18941, 20163,
20729, 21531, 21548, 21639,
21112, 20815, 19785, 18997,
17587, 16469, 14836, 13439,
11835, 10392, 8933, 7473,
6413, 5366, 4489, 3592,
2864, 2364, 1783, 1475,
1214, 1013, 751, 632,
547, 447, 395, 400,
360, 342, 315, 320,
318, 306, 329, 316,
322, 370, 347, 387,
385, 470, 503, 527,
587, 656, 725, 831,
937, 1055, 1200, 1313,
1431, 1622, 1857, 1977,
2067, 2243, 2423, 2494,
2634, 2725, 2767, 2736,
2720, 2737, 2585, 2481,
2418, 2235, 2150, 1929,
1798, 1579, 1406, 1240,
1090, 930, 849, 778,
658, 541, 494, 415,
375, 298, 310, 281,
248, 212, 225, 202,
159, 174, 194, 188,
182, 168, 161, 167,
165, 188, 168, 167,
162, 177, 169, 162,
167, 183, 166, 157,
173, 174, 170, 152,
179, 160, 162, 165,
177, 156, 156, 149,
174, 201, 181, 178,
170, 159, 185, 174,
178, 167, 174, 158,
185, 177, 157, 187,
176, 138, 154, 166,
158, 152, 173, 168,
142, 172, 165, 179,
152, 152, 150, 172,
158, 151, 159, 145,
175, 167, 145, 147,
151, 137, 150, 144,
173, 142, 136, 139,
155, 150, 153, 165,
129, 146, 165, 161,
143, 126, 195, 132,
145, 141, 174, 147,
141, 154, 143, 140,
132, 154, 156, 150,
140, 151, 137, 148,
159, 153, 136, 170,
140, 152, 125, 136,
131, 152, 128, 143,
131, 133, 125, 160,
150, 133, 178, 143,
138, 136, 158, 150,
146, 132, 124, 137,
166, 155, 150, 128,
132, 146, 144, 131,
149, 132, 149, 134,
144, 123, 146, 137,
155, 126, 132, 140,
156, 131, 116, 128,
139, 120, 149, 150,
138, 118, 134, 146,
133, 122, 128, 134,
111, 120, 142, 122,
107, 145, 127, 135,
134, 134, 128, 134,
148, 110, 140, 152,
118, 139, 114, 139,
123, 143, 126, 125,
124, 133, 132, 109,
131, 145, 150, 125,
117, 126, 127, 128,
125, 124, 120, 127,
119, 132, 107, 126,
132, 126, 127, 132,
121, 125, 129, 108,
109, 132, 118, 122,
133, 129, 122, 132,
128, 137, 128, 137,
135, 119, 136, 119,
134, 108, 134, 133,
122, 115, 129, 110,
133, 118, 133, 127,
97, 118, 131, 138,
128, 110, 122, 121,
125, 127, 102, 125,
106, 114, 116, 159,
108, 112, 129, 114,
98, 116, 137, 110,
115, 100, 126, 113,
108, 118, 103, 128,
120, 115, 94, 117,
116, 108, 123, 122,
120, 119, 127, 103,
139, 109, 109, 112,
108, 132, 130, 114,
105, 118, 93, 114,
103, 106, 106, 107,
114, 114, 101, 89,
107, 100, 98, 118,
110, 104, 117, 128,
107, 107, 126, 121,
122, 114, 117, 104,
108, 126, 107, 109,
128, 110, 128, 101,
110, 106, 92, 104,
89, 124, 125, 106,
119, 108, 111, 93,
102, 111, 95, 93,
105, 106, 122, 91,
80, 107, 107, 93,
96, 101, 104, 109,
107, 100, 90, 117,
105, 98, 107, 105,
92, 104, 105, 102,
110, 90, 106, 89,
88, 91, 116, 102,
91, 109, 95, 100,
105, 109, 111, 98,
91, 100, 102, 110,
96, 78, 88, 97,
88, 99, 102, 85,
111, 92, 84, 99,
90, 102, 99, 115,
92, 99, 81, 98,
101, 108, 85, 104,
89, 87, 95, 103,
81, 94, 76, 103,
91, 103, 97, 98,
95, 87, 117, 95,
89, 91, 123, 97,
92, 102, 111, 86,
98, 79, 100, 104,
82, 90, 113, 95,
106, 81, 100, 89,
89, 111, 94, 89,
93, 86, 103, 94,
87, 84, 86, 81,
99, 104, 86, 81,
89, 94, 76, 82,
94, 82, 75, 82,
80, 78, 86, 70,
96, 88, 93, 102,
86, 75, 88, 79,
93, 77, 85, 88,
82, 64, 81, 86,
88, 84, 88, 85,
91, 88, 82, 78,
86, 95, 89, 90,
98, 77, 77, 74,
94, 78, 96, 81,
77, 109, 82, 98,
74, 90, 86, 72,
79, 84, 71, 100,
85, 75, 71, 97,
96, 82, 75, 83,
93, 77, 62, 96,
66, 86, 75, 71,
69, 86, 62, 79,
81, 82, 80, 74,
73, 89, 84, 79,
69, 86, 78, 88,
72, 73, 69, 90,
70, 77, 93, 76,
70, 86, 65, 74,
78, 59, 81, 80,
63, 80, 66, 63,
78, 82, 80, 69,
73, 63, 74, 73,
97, 75, 71, 68,
87, 78, 63, 78,
67, 58, 59, 86,
65, 52, 81, 84,
82, 75, 73, 85,
69, 56, 74, 76,
57, 60, 69, 76,
87, 81, 58, 60,
75, 77, 68, 68,
82, 64, 86, 56,
67, 72, 70, 84,
67, 63, 75, 73,
70, 79, 65, 58,
93, 69, 78, 66,
65, 79, 74, 60,
65, 59, 68, 64,
78, 63, 61, 73,
71, 79, 63, 73,
68, 71, 71, 50,
60, 56, 73, 59,
62, 70, 74, 63,
61, 67, 72, 75,
72, 67, 59, 64,
71, 67, 80, 69,
68, 71, 53, 70,
63, 69, 58, 56,
54, 56, 87, 56,
71, 64, 63, 63,
66, 54, 62, 71,
52, 48, 68, 67,
59, 47, 61, 54,
62, 68, 53, 61,
58, 57, 68, 57,
58, 66, 62, 39,
39, 61, 62, 48,
57, 68, 60, 55,
53, 61, 54, 48,
51, 49, 62, 57,
64, 62, 63, 56,
59, 62, 66, 47,
62, 52, 54, 56,
69, 51, 56, 51,
56, 63, 48, 48,
54, 62, 44, 45,
43, 57, 63, 48,
59, 56, 58, 45,
58, 48, 57, 66,
59, 62, 56, 52,
46, 51, 52, 43,
48, 45, 62, 61,
57, 46, 71, 61,
42, 42, 51, 38,
44, 44, 65, 54,
59, 52, 43, 59,
52, 59, 49, 47,
51, 55, 56, 47,
53, 59, 66, 55,
48, 52, 53, 57,
43, 54, 51, 58,
41, 46, 54, 50,
54, 48, 51, 51,
52, 34, 57, 41,
45, 45, 61, 48,
46, 54, 49, 54,
51, 37, 53, 55,
48, 65, 50, 49,
57, 58, 44, 49,
47, 61, 56, 54,
56, 50, 53, 54,
60, 44, 38, 47,
37, 43, 54, 42,
44, 51, 56, 45,
44, 51, 43, 47,
47, 48, 47, 50,
41, 49, 42, 53,
49, 53, 44, 66,
59, 44, 45, 42,
42, 41, 46, 49,
53, 40, 42, 48,
58, 44, 46, 49,
46, 40, 54, 41,
36, 42, 44, 43,
47, 39, 51, 43,
46, 47, 43, 42,
48, 51, 43, 48,
37, 44, 44, 36,
51, 41, 40, 41,
44, 54, 37, 32,
49, 44, 38, 37,
32, 47, 49, 40,
42, 40, 39, 46,
51, 40, 50, 44,
38, 34, 51, 53,
35, 40, 33, 44,
45, 32, 42, 40,
38, 44, 44, 48,
39, 38, 38, 44,
50, 46, 41, 46,
39, 38, 38, 45,
44, 47, 24, 40,
40, 37, 38, 37,
42, 41, 39, 47,
37, 34, 43, 37,
30, 49, 49, 39,
43, 40, 35, 50,
39, 36, 38, 46,
40, 42, 37, 24,
41, 46, 34, 31,
40, 37, 31, 32,
42, 45, 38, 42,
34, 40, 37, 38,
36, 35, 41, 52,
37, 38, 47, 47,
35, 41, 38, 21,
44, 43, 36, 27,
54, 29, 31, 38,
33, 40, 32, 31,
32, 37, 35, 36,
38, 42, 34, 44,
28, 27, 37, 32,
44, 35, 40, 36,
36, 28, 30, 30,
33, 40, 37, 30,
34, 36, 31, 30,
28, 32, 42, 26,
41, 36, 27, 38,
36, 44, 39, 30,
29, 42, 40, 40,
22, 37, 37, 30,
29, 26, 41, 37,
23, 28, 36, 34,
36, 27, 35, 43,
40, 32, 37, 33,
41, 32, 34, 38,
37, 23, 42, 27,
33, 36, 33, 43,
38, 33, 30, 36,
35, 36, 39, 23,
35, 30, 38, 34,
35, 38, 26, 37,
32, 30, 21, 27,
33, 35, 31, 30,
27, 34, 14, 28,
26, 36, 25, 22,
31, 34, 38, 31,
27, 33, 35, 33,
18, 33, 36, 31,
37, 31, 29, 37,
32, 24, 28, 37,
20, 29, 21, 23,
34, 32, 23, 38,
35, 26, 29, 32,
25, 19, 26, 24,
26, 27, 33, 32,
34, 23, 27, 28,
20, 31, 27, 28,
38, 29, 33, 27,
34, 20, 27, 26,
20, 31, 35, 26,
21, 28, 17, 31,
28, 37, 28, 21,
19, 27, 30, 28,
25, 33, 31, 30,
21, 20, 20, 18,
25, 26, 23, 20,
33, 21, 24, 27,
18, 28, 32, 28,
35, 29, 29, 26,
19, 18, 21, 20,
30, 27, 25, 15,
25, 36, 16, 14,
37, 21, 25, 24,
22, 32, 19, 21,
25, 26, 30, 26,
22, 18, 29, 17,
34, 24, 32, 24,
22, 13, 18, 26,
13, 15, 28, 30,
31, 27, 29, 30,
26, 24, 27, 25,
33, 26, 22, 22,
25, 18, 24, 22,
24, 14, 21, 24,
22, 20, 23, 24,
21, 24, 31, 20,
17, 23, 18, 9,
15, 22, 17, 19,
27, 19, 25, 26,
19, 32, 21, 28,
29, 22, 19, 19,
24, 19, 21, 18,
26, 23, 26, 21,
21, 18, 26, 23,
20, 14, 18, 27,
22, 19, 17, 26,
19, 18, 17, 29,
21, 17, 21, 22,
22, 17, 18, 16,
20, 17, 16, 29,
22, 18, 21, 20,
15, 31, 22, 15,
23, 17, 24, 15,
20, 24, 15, 17,
13, 19, 13, 14,
19, 26, 21, 26,
19, 21, 18, 12,
16, 27, 19, 23,
15, 14, 20, 15,
19, 20, 16, 13,
18, 20, 17, 17,
22, 21, 18, 16,
23, 12, 16, 13,
12, 19, 13, 21,
17, 16, 19, 22,
19, 16, 15, 16,
13, 19, 16, 19,
12, 22, 20, 13,
19, 12, 20, 13,
18, 17, 8, 11,
23, 23, 16, 12,
13, 16, 13, 13,
24, 12, 14, 18,
21, 18, 12, 14,
17, 18, 16, 24,
24, 15, 13, 18,
19, 11, 16, 18,
14, 8, 16, 28,
12, 16, 22, 14,
11, 14, 15, 17,
16, 15, 8, 23,
15, 13, 11, 18,
15, 16, 17, 12,
14, 16, 11, 20,
20, 9, 20, 10,
15, 17, 13, 16,
16, 19, 12, 24,
20, 13, 14, 12,
9, 14, 18, 15,
19, 22, 17, 20,
12, 14, 12, 14,
17, 12, 18, 9,
14, 11, 13, 9,
5, 8, 12, 20,
19, 13, 13, 11,
8, 7, 12, 18,
19, 13, 15, 11,
12, 9, 13, 21,
9, 16, 14, 12,
6, 8, 9, 7,
11, 15, 12, 8,
15, 12, 15, 10,
12, 13, 13, 6,
10, 12, 17, 18,
15, 8, 10, 13,
11, 9, 11, 13,
13, 13, 8, 13,
11, 13, 13, 11,
15, 10, 12, 12,
10, 7, 14, 13,
15, 14, 12, 11,
9, 11, 12, 8,
10, 15, 12, 14,
10, 11, 12, 7,
6, 4, 14, 11,
9, 7, 9, 9,
8, 12, 16, 16,
14, 13, 15, 7,
11, 16, 12, 10,
6, 10, 11, 9,
9, 8, 10, 8,
13, 14, 4, 5,
20, 11, 12, 9,
13, 6, 11, 13,
10, 14, 9, 11,
13, 14, 11, 9,
7, 15, 6, 5,
8, 9, 18, 10,
5, 8, 10, 11,
5, 5, 2, 12,
8, 6, 8, 13,
14, 9, 8, 5,
7, 7, 5, 8,
4, 8, 8, 12,
6, 10, 9, 9,
8, 5, 7, 5,
11, 5, 10, 11,
7, 8, 6, 5,
7, 4, 9, 5,
9, 10, 10, 6,
12, 6, 10, 3,
8, 2, 10, 6,
12, 4, 6, 7,
10, 6, 10, 7,
9, 8, 13, 3,
7, 3, 4, 7,
4, 7, 4, 8,
5, 3, 9, 5,
13, 10, 7, 7,
6, 9, 8, 9,
7, 6, 8, 10,
10, 4, 2, 5,
7, 4, 8, 8,
1, 8, 8, 6,
5, 7, 7, 9,
4, 10, 7, 7,
10, 10, 5, 8,
4, 7, 8, 7,
7, 8, 7, 7,
4, 7, 5, 4,
10, 5, 6, 6,
13, 6, 5, 5,
8, 2, 5, 6,
12, 2, 5, 5,
6, 8, 4, 5,
8, 4, 5, 6,
6, 6, 6, 4,
5, 7, 9, 2,
4, 5, 4, 4,
3, 3, 1, 6,
7, 6, 6, 3,
2, 2, 6, 9,
2, 6, 5, 5,
4, 3, 5, 10,
3, 8, 4, 4,
7, 2, 4, 3,
3, 2, 5, 4,
5, 1, 6, 6,
5, 3, 10, 5,
2, 5, 4, 5,
3, 5, 4, 2,
2, 4, 4, 2,
3, 1, 4, 3,
3, 0, 4, 5,
5, 0, 8, 4,
7, 4, 3, 1,
3, 3, 5, 5,
3, 2, 6, 2,
5, 3, 3, 4,
3, 1, 4, 3,
3, 4, 2, 5,
0, 7, 4, 2,
2, 5, 3, 4,
2, 3, 4, 2,
4, 3, 3, 5,
2, 4, 0, 3,
2, 1, 4, 1,
2, 3, 3, 2,
4, 0, 6, 6,
1, 1, 2, 5,
1, 3, 2, 3,
2, 4, 7, 4,
2, 2, 2, 2,
2, 3, 3, 4,
3, 0, 1, 1,
1, 1, 2, 2,
2, 1, 2, 0,
0, 1, 3, 0,
0, 4, 1, 1,
3, 3, 2, 2,
2, 1, 2, 3,
1, 2, 2, 1,
2, 2, 1, 7,
1, 5, 0, 0,
2, 3, 0, 1,
0, 1, 3, 1,
2, 2, 0, 1,
2, 2, 0, 1,
1, 4, 2, 2,
1, 1, 2, 2,
2, 0, 2, 2,
0, 2, 0, 2,
0, 2, 0, 3,
1, 0, 0, 2,
2, 0, 0, 1,
2, 1, 0, 1,
0, 2, 2, 2,
1, 0, 1, 0,
2, 3, 2, 1,
0, 1, 2, 1,
0, 1, 1, 1,
1, 1, 1, 0,
1, 2, 0, 1,
0, 0, 0, 2,
3, 2, 1, 1,
0, 2, 0, 0,
0, 1, 0, 0,
0, 1, 1, 0,
0, 1, 1, 0,
0, 1, 0, 1,
0, 0, 0, 0,
1, 0, 1, 0,
0, 0, 0, 0,
0, 0, 0, 1,
0, 0, 0, 0,
0, 1, 0, 0,
0, 0, 0, 0,
0, 0, 0, 0,
0, 0, 0, 0,
0, 0, 1, 0,
0, 0, 1, 1,
0, 0, 0, 0,
0, 0, 0, 0,
0, 0, 0, 0,
0, 0, 0, 0,
0, 0, 0, 0,
0, 0, 0, 0,
0, 0, 0, 0,
0, 0, 0, 0,
0, 0, 0, 0,
0, 0, 0, 0,
0, 0, 0, 0,
0, 0, 1, 0,
0, 0, 0, 0,
0, 0, 0, 0,
0, 0, 0, 0,
0, 0, 0, 0,
0, 0, 0, 0,
0, 0, 0, 0,
0, 0, 0, 0,
0, 0, 0, 0,
0, 0, 0, 0,
0, 0, 0, 0,
0, 0, 0, 0,
0, 0, 0, 0,
0, 0, 0, 0,
0, 0, 0, 0,
0, 0, 0, 0,
0, 0, 0, 0,
0, 0, 0, 0,
0, 0, 0, 0,
0, 0, 0, 0,
0, 0, 0, 0,
0, 0, 0, 0,
0, 0, 0, 0,
0, 0, 0, 0,
0, 0, 0, 0,
0, 0, 0, 0,
0, 0, 0, 0,
0, 0, 0, 0,
0, 0, 0, 0,
0, 0, 0, 0,
0, 0, 0, 0,
0, 0, 0, 0,
0, 0, 0, 0,
0, 0, 0, 0,
0, 0, 0, 0,
0, 0, 0, 0,
0, 0, 0, 0,
0, 0, 0, 0,
0, 0, 0, 1,
0, 0, 0, 0,
0, 0, 0, 0,
0, 0, 0, 0,
0, 0, 0, 0,
0, 0, 0, 0,
0, 0, 0, 0,
0, 0, 0, 0,
0, 0, 0, 0,
0, 0, 0, 0,
0, 0, 0, 0,
0, 0, 0, 0,
0, 0, 0, 0,
0, 0, 0, 0,
0, 0, 0, 0,
0, 0, 0, 0,
0, 0, 0, 0,
0, 0, 0, 0,
0, 0, 0, 0,
0, 0, 0, 0,
0, 0, 0, 0,
0, 0, 0, 0,
0, 0, 0, 0,
0, 0, 0, 0,
0, 0, 0, 0,
0, 0, 0, 0,
0, 0, 0, 0,
0, 0, 0, 0,
0, 0, 0, 0,
0, 0, 0, 0,
0, 0, 0, 0,
0, 0, 0, 0,
0, 0, 0, 0,
0, 0, 0, 0,
0, 0, 0, 0,
0, 0, 0, 0,
0, 0, 0, 0,
0, 0, 0, 0,
0, 0, 0, 0,
0, 0, 0, 0,
0, 0, 0, 0,
0, 0, 0, 0,
0, 0, 0, 0,
0, 0, 0, 0,
0, 0, 0, 0,
0, 0, 0, 0,
0, 0, 0, 0,
0, 0, 0, 0,
0, 0, 0, 0,
0, 0, 0, 0,
0, 0, 0, 0,
0, 0, 0, 0,
0, 0, 0, 0,
0, 0, 0, 0,
0, 0, 0, 0,
0, 0, 0, 0,
0, 0, 0, 0,
0, 0, 0, 0,
0, 0, 0, 0,
0, 0, 0, 0,
0, 0, 0, 0,
0, 0, 0, 0,
0, 0, 0, 1,
0, 0, 0, 0,
0, 0, 0, 0,
0, 0, 0, 0,
0, 0, 0, 0,
0, 0, 0, 0,
0, 0, 0, 0,
0, 0, 0, 0,
0, 0, 0, 0,
0, 0, 0, 0,
0, 0, 0, 0,
0, 0, 0, 0,
0, 0, 0, 0,
0, 0, 0, 0,
0, 0, 0, 0,
0, 0, 0, 0,
0, 0, 0, 0,
0, 0, 0, 0,
0, 0, 0, 0,
0, 0, 0, 0,
0, 0, 0, 0,
0, 0, 0, 0,
0, 0, 0, 0,
0, 0, 0, 0,
0, 0, 0, 0,
0, 0, 0, 0,
0, 0, 0, 0,
0, 0, 0, 0,
0, 0, 0, 0,
0, 0, 0, 0,
0, 0, 0, 0,
0, 0, 0, 0,
0, 0, 0, 0,
0, 0, 0, 0,
0, 0, 0, 0,
0, 0, 0, 0,
0, 0, 0, 0,
0, 0, 0, 0,
0, 0, 0, 0,
0, 0, 0, 0,
0, 0, 0, 0,
0, 0, 0, 0,
0, 0, 0, 0,
0, 0, 0, 0,
0, 0, 0, 0,
0, 0, 0, 0,
0, 0, 0, 0,
0, 0, 0, 0,
0, 0, 0, 0,
0, 0, 0, 0,
0, 0, 0, 0,
0, 0, 0, 0,
0, 0, 0, 0,
0, 0, 0, 0,
0, 0, 0, 0,
0, 0, 0, 0,
0, 0, 0, 0,
0, 0, 0, 0,
0, 0, 0, 0,
0, 0, 0, 0,
0, 0, 0, 0,
0, 0, 0, 0,
0, 0, 0, 0,
0, 0, 0, 0,
0, 0, 0, 0,
0, 0, 0, 0,
0, 0, 0, 0,
0, 0, 0, 0,
0, 0, 0, 0,
0, 0, 0, 0,
0, 0, 0, 0,
0, 0, 0, 0,
0, 0, 0, 0,
0, 0, 0, 0,
0, 0, 0, 0,
0, 0, 0, 0,
0, 0, 0, 0,
0, 0, 0, 0,
0, 0, 0, 0,
0, 0, 0, 0,
0, 0, 0, 0,
0, 0, 0, 0,
0, 0, 0, 0,
0, 0, 0, 0,
0, 0, 0, 0,
0, 0, 0, 0,
0, 0, 0, 0,
0, 0, 0, 0,
0, 0, 0, 0,
0, 0, 0, 0,
0, 0, 0, 0,
0, 0, 0, 0,
0, 0, 0, 0,
0, 0, 0, 0,
0, 0, 0, 0,
0, 0, 0, 0,
0, 0, 0, 0,
0, 0, 0, 0,
0, 1, 0, 0,
0, 0, 0, 0,
0, 0, 0, 0,
0, 0, 0, 0,
0, 0, 0, 0,
0, 0, 0, 0,
0, 0, 0, 0,
0, 0, 0, 0,
0, 0, 0, 0,
0, 0, 0, 0,
0, 0, 0, 0,
0, 0, 0, 0,
0, 0, 0, 0,
0, 0, 0, 0,
0, 0, 0, 0,
0, 0, 0, 0,
0, 0, 0, 0,
0, 0, 0, 0,
0, 0, 0, 0,
0, 0, 0, 0,
0, 0, 0, 0,
0, 0, 0, 0,
0, 0, 0, 0,
0, 0, 0, 0,
0, 0, 0, 0,
0, 0, 0, 0,
0, 0, 0, 0,
0, 0, 0, 0,
0, 0, 0, 0,
0, 0, 0, 0,
0, 0, 0, 0,
0, 0, 0, 0,
0, 0, 0, 0,
0, 0, 0, 0,
#ENDOFDATA   :