File: dtsa2/DemoSpectra/K411-K412/Fe std.msa
#FORMAT      : EMSA/MAS Spectral Data File
#VERSION     : 1.0
#TITLE       : Bruker AXS spectrum Fe
#DATE        : 29-JUL-2008
#TIME        : 10:20
#OWNER       : Bruker AXS
#NPOINTS     : 4096
#NCOLUMNS    : 4
#XUNITS      : eV
#YUNITS      : counts
#DATATYPE    : Y
#XPERCHAN    : 5.00409
#OFFSET      : -477.824
#BEAMKV      : 15
#SIGNALTYPE  : EDS
#ELEVANGLE   : 40
#AZIMANGLE   : 180
#LIVETIME    : 59.355
#REALTIME    : 63.325
#PROBECUR    : 2.5
#TAUWIND     : 0
#TDEADLYR    : 0.00001
#TACTLYR     : 0.045
#TALWIND     : 0.003
#CHOFFSET    : 0.0
#XLABEL      : Energy (eV)
#YLABEL      : Counts
#EDSDET      : SDDUTW
##D2STDCMP   : Fe,(Fe:100.0),5.0
#SPECTRUM    :
0, 0, 0, 0,
0, 0, 0, 0,
0, 0, 0, 0,
0, 0, 0, 0,
0, 0, 0, 0,
0, 0, 0, 0,
0, 0, 0, 0,
0, 0, 0, 0,
0, 0, 0, 0,
0, 0, 0, 0,
0, 0, 0, 0,
0, 0, 0, 0,
0, 0, 0, 0,
0, 0, 0, 0,
0, 0, 0, 0,
0, 0, 0, 0,
0, 0, 0, 0,
0, 0, 0, 0,
0, 0, 0, 0,
0, 0, 0, 0,
0, 7, 17, 42,
202, 481, 1385, 3584,
7963, 16532, 30202, 49648,
72675, 95679, 113434, 119959,
115196, 98574, 76454, 53854,
33781, 19152, 9881, 4396,
1486, 335, 55, 46,
0, 0, 0, 3,
27, 61, 98, 125,
136, 136, 129, 128,
126, 127, 134, 125,
131, 123, 132, 131,
137, 141, 147, 152,
164, 173, 188, 201,
213, 226, 234, 250,
270, 305, 334, 360,
383, 414, 453, 498,
531, 539, 536, 505,
486, 446, 411, 369,
324, 301, 273, 270,
275, 270, 291, 291,
326, 356, 346, 374,
383, 401, 401, 433,
433, 450, 457, 463,
486, 506, 492, 521,
540, 511, 528, 566,
606, 620, 657, 674,
735, 798, 795, 825,
882, 923, 951, 999,
1069, 1083, 1123, 1204,
1167, 1189, 1232, 1268,
1272, 1375, 1466, 1687,
1949, 2262, 2753, 3495,
4224, 4870, 5714, 6727,
7402, 7858, 8250, 8234,
7956, 7731, 7056, 6791,
6341, 6066, 6300, 6877,
7769, 9332, 11230, 13322,
15641, 17730, 19528, 20834,
21376, 20893, 19766, 17596,
15557, 13062, 10542, 8120,
6050, 4347, 2972, 2301,
1528, 1146, 888, 731,
599, 569, 534, 495,
520, 477, 380, 399,
376, 358, 364, 334,
319, 294, 327, 329,
336, 331, 296, 341,
281, 317, 335, 358,
329, 328, 330, 357,
347, 346, 383, 359,
335, 314, 385, 385,
352, 338, 391, 433,
407, 403, 393, 419,
424, 384, 411, 434,
413, 378, 427, 474,
440, 434, 414, 432,
463, 421, 449, 430,
456, 446, 471, 441,
483, 454, 492, 450,
465, 476, 478, 512,
556, 523, 481, 465,
481, 520, 487, 537,
516, 477, 509, 512,
511, 519, 491, 533,
562, 574, 528, 574,
545, 553, 527, 530,
522, 545, 521, 529,
555, 523, 540, 535,
486, 514, 600, 574,
545, 544, 526, 587,
540, 593, 570, 583,
568, 565, 614, 582,
560, 618, 605, 584,
585, 580, 600, 593,
556, 566, 600, 634,
599, 537, 603, 602,
607, 593, 584, 610,
588, 612, 584, 598,
633, 614, 613, 647,
623, 672, 602, 588,
638, 573, 624, 617,
608, 577, 622, 636,
574, 595, 570, 591,
592, 564, 595, 538,
612, 575, 642, 596,
590, 589, 603, 604,
598, 631, 621, 575,
613, 597, 612, 601,
605, 675, 635, 622,
641, 635, 645, 630,
694, 659, 729, 645,
662, 665, 627, 628,
708, 619, 659, 687,
693, 652, 666, 658,
617, 648, 638, 638,
682, 632, 609, 696,
652, 616, 618, 635,
628, 621, 631, 604,
645, 631, 655, 642,
618, 631, 622, 594,
563, 615, 638, 603,
665, 628, 613, 617,
615, 660, 633, 632,
631, 649, 612, 567,
638, 642, 607, 633,
626, 679, 571, 609,
622, 616, 631, 590,
633, 597, 592, 629,
626, 627, 603, 661,
619, 655, 619, 626,
632, 620, 596, 573,
651, 636, 622, 639,
582, 620, 615, 622,
639, 584, 583, 646,
617, 639, 600, 604,
603, 626, 645, 604,
593, 589, 648, 582,
590, 627, 614, 609,
582, 576, 616, 645,
609, 599, 578, 624,
583, 590, 621, 551,
620, 616, 572, 613,
617, 601, 580, 575,
616, 595, 596, 572,
580, 634, 578, 578,
537, 596, 606, 573,
580, 584, 628, 630,
561, 583, 602, 616,
597, 565, 584, 551,
551, 567, 602, 586,
589, 541, 556, 540,
539, 569, 569, 552,
588, 552, 541, 626,
556, 533, 554, 610,
571, 574, 514, 577,
544, 539, 534, 573,
572, 536, 572, 552,
549, 540, 539, 531,
577, 578, 578, 560,
528, 544, 551, 532,
499, 582, 538, 558,
596, 534, 529, 509,
508, 528, 517, 561,
509, 532, 548, 467,
511, 522, 545, 514,
509, 508, 551, 542,
490, 519, 532, 541,
553, 512, 537, 488,
553, 550, 539, 442,
524, 484, 525, 532,
537, 520, 498, 528,
502, 501, 481, 499,
516, 502, 520, 540,
480, 491, 518, 500,
480, 514, 508, 502,
550, 482, 520, 512,
498, 494, 514, 505,
473, 490, 501, 479,
498, 548, 521, 526,
497, 507, 456, 498,
498, 507, 497, 525,
500, 480, 487, 454,
460, 483, 494, 475,
472, 464, 449, 460,
457, 453, 449, 455,
453, 457, 461, 509,
485, 459, 439, 469,
446, 454, 442, 463,
476, 489, 472, 472,
445, 463, 437, 478,
466, 428, 457, 456,
405, 483, 432, 464,
470, 458, 451, 455,
444, 422, 479, 430,
424, 467, 492, 441,
421, 424, 410, 430,
425, 418, 423, 426,
427, 414, 428, 437,
438, 442, 446, 455,
432, 424, 415, 440,
421, 454, 399, 439,
406, 411, 438, 436,
418, 423, 412, 435,
431, 404, 409, 384,
423, 396, 422, 458,
435, 395, 432, 400,
426, 425, 410, 420,
447, 415, 405, 430,
415, 388, 409, 379,
373, 386, 412, 412,
376, 450, 411, 411,
404, 385, 400, 387,
423, 400, 401, 401,
368, 410, 392, 385,
356, 411, 403, 362,
378, 383, 418, 362,
394, 357, 399, 419,
392, 371, 340, 390,
417, 357, 369, 368,
376, 362, 388, 374,
356, 396, 392, 372,
394, 420, 408, 342,
385, 352, 390, 367,
341, 358, 353, 348,
334, 338, 367, 354,
384, 345, 391, 340,
327, 373, 316, 356,
328, 367, 361, 366,
375, 356, 326, 346,
322, 330, 369, 320,
358, 357, 328, 344,
345, 367, 362, 322,
345, 339, 307, 328,
344, 398, 322, 320,
327, 337, 328, 326,
323, 343, 320, 347,
337, 356, 377, 341,
336, 351, 324, 344,
360, 333, 329, 303,
313, 325, 369, 321,
340, 323, 348, 285,
321, 332, 318, 299,
323, 300, 302, 326,
307, 336, 338, 345,
291, 304, 340, 317,
326, 315, 291, 304,
335, 333, 324, 312,
308, 308, 271, 309,
317, 313, 336, 288,
321, 326, 335, 310,
290, 306, 301, 303,
313, 300, 298, 269,
288, 326, 299, 287,
315, 305, 280, 306,
283, 304, 303, 293,
286, 288, 289, 284,
260, 315, 313, 334,
297, 307, 285, 302,
295, 284, 312, 301,
260, 330, 311, 302,
317, 276, 290, 298,
275, 277, 291, 289,
270, 324, 277, 275,
286, 298, 282, 325,
285, 282, 280, 288,
313, 306, 282, 284,
276, 278, 264, 281,
267, 266, 281, 267,
263, 291, 265, 272,
283, 277, 282, 261,
264, 289, 296, 297,
283, 270, 254, 276,
256, 270, 251, 258,
238, 269, 271, 244,
257, 287, 250, 273,
275, 261, 279, 273,
285, 273, 306, 254,
278, 262, 261, 262,
251, 246, 261, 264,
275, 266, 274, 272,
252, 250, 236, 261,
263, 227, 264, 242,
229, 266, 214, 224,
260, 261, 247, 246,
251, 229, 259, 251,
244, 235, 237, 279,
237, 279, 268, 262,
240, 246, 236, 261,
258, 274, 265, 251,
282, 245, 265, 227,
268, 218, 241, 249,
244, 286, 264, 260,
280, 236, 251, 267,
250, 266, 264, 275,
282, 249, 245, 293,
257, 279, 257, 255,
254, 256, 267, 256,
238, 246, 258, 273,
248, 229, 241, 241,
237, 219, 251, 238,
232, 221, 239, 193,
238, 248, 262, 223,
252, 216, 233, 236,
202, 239, 236, 217,
229, 236, 219, 212,
201, 234, 217, 247,
220, 237, 219, 233,
216, 218, 238, 207,
219, 182, 197, 202,
213, 186, 193, 246,
181, 199, 225, 209,
244, 200, 206, 220,
224, 194, 239, 201,
195, 219, 184, 210,
205, 199, 173, 217,
204, 179, 193, 223,
206, 198, 188, 200,
200, 205, 252, 186,
201, 227, 220, 205,
216, 197, 223, 201,
224, 235, 216, 214,
217, 193, 206, 196,
214, 218, 209, 217,
215, 236, 211, 229,
215, 207, 183, 196,
195, 218, 220, 231,
233, 230, 190, 187,
207, 183, 252, 183,
219, 235, 201, 201,
205, 228, 229, 211,
202, 249, 213, 220,
249, 211, 234, 260,
222, 245, 257, 246,
259, 248, 267, 285,
341, 340, 385, 422,
468, 527, 623, 733,
831, 980, 1144, 1305,
1653, 1895, 2094, 2586,
2933, 3442, 3879, 4408,
5045, 5571, 6250, 7041,
7702, 8271, 9052, 9740,
10142, 10749, 11436, 11765,
12103, 12574, 12580, 12611,
12811, 12526, 12474, 11937,
11446, 11161, 10578, 9769,
9306, 8610, 7727, 7136,
6521, 5847, 5157, 4613,
4093, 3481, 3072, 2687,
2276, 1950, 1646, 1451,
1211, 1021, 803, 757,
633, 515, 477, 358,
339, 307, 286, 288,
234, 236, 226, 189,
206, 177, 211, 209,
182, 170, 169, 196,
182, 191, 189, 185,
187, 190, 182, 174,
179, 178, 170, 181,
199, 168, 192, 178,
164, 192, 182, 187,
178, 164, 185, 179,
156, 170, 176, 183,
168, 197, 202, 185,
198, 191, 187, 187,
185, 201, 188, 212,
213, 199, 207, 186,
204, 193, 202, 201,
191, 220, 248, 260,
245, 289, 275, 291,
338, 356, 422, 414,
458, 500, 565, 584,
646, 694, 769, 910,
975, 982, 1079, 1130,
1219, 1329, 1318, 1454,
1549, 1617, 1638, 1633,
1795, 1660, 1658, 1685,
1663, 1709, 1724, 1587,
1527, 1432, 1350, 1352,
1241, 1171, 1128, 978,
876, 805, 720, 700,
633, 551, 483, 459,
410, 376, 319, 300,
299, 240, 233, 211,
197, 215, 168, 179,
152, 149, 138, 137,
140, 132, 146, 153,
116, 122, 116, 108,
112, 91, 126, 114,
114, 117, 101, 111,
121, 100, 110, 139,
109, 106, 114, 122,
135, 111, 122, 124,
109, 117, 104, 128,
119, 121, 128, 135,
133, 114, 114, 120,
116, 112, 146, 118,
123, 125, 101, 120,
124, 115, 124, 126,
107, 93, 106, 121,
113, 135, 114, 105,
119, 110, 117, 123,
111, 108, 116, 125,
119, 108, 101, 104,
110, 110, 96, 121,
130, 114, 109, 122,
110, 110, 123, 106,
116, 113, 100, 113,
110, 109, 93, 107,
131, 106, 103, 101,
116, 108, 109, 104,
119, 100, 136, 125,
93, 121, 114, 116,
123, 94, 118, 104,
113, 107, 98, 122,
104, 112, 102, 123,
112, 102, 98, 113,
120, 107, 104, 99,
120, 95, 125, 112,
110, 120, 116, 126,
93, 111, 92, 89,
95, 109, 110, 115,
80, 109, 119, 117,
108, 97, 108, 100,
99, 100, 110, 119,
111, 91, 89, 102,
127, 98, 91, 95,
110, 105, 105, 115,
101, 115, 89, 103,
105, 82, 99, 85,
88, 104, 93, 95,
103, 99, 104, 91,
110, 109, 110, 105,
102, 123, 99, 101,
124, 100, 107, 111,
100, 95, 111, 110,
121, 109, 102, 93,
113, 105, 98, 100,
116, 118, 104, 97,
115, 106, 102, 113,
118, 104, 108, 103,
104, 101, 104, 98,
80, 98, 94, 96,
99, 102, 102, 95,
93, 92, 73, 108,
87, 92, 112, 109,
95, 93, 91, 108,
114, 105, 91, 96,
82, 87, 106, 110,
76, 73, 91, 98,
84, 105, 97, 115,
97, 93, 78, 92,
90, 72, 93, 75,
85, 102, 83, 84,
91, 98, 86, 97,
67, 104, 108, 84,
84, 79, 91, 84,
90, 83, 86, 76,
95, 82, 93, 75,
82, 81, 82, 109,
81, 96, 85, 106,
100, 87, 89, 89,
91, 89, 94, 84,
84, 80, 77, 89,
80, 102, 83, 80,
94, 73, 74, 107,
90, 96, 91, 87,
86, 93, 77, 74,
71, 91, 90, 91,
80, 81, 85, 82,
75, 95, 70, 87,
90, 92, 88, 83,
90, 99, 79, 90,
76, 85, 91, 76,
92, 68, 82, 86,
78, 86, 76, 104,
74, 94, 78, 90,
70, 67, 93, 78,
67, 81, 77, 60,
76, 94, 67, 86,
67, 87, 81, 83,
80, 73, 73, 72,
84, 72, 72, 79,
69, 69, 83, 95,
86, 88, 78, 78,
98, 79, 73, 87,
90, 83, 71, 96,
65, 78, 76, 74,
76, 65, 79, 71,
76, 58, 82, 67,
66, 63, 74, 76,
73, 64, 68, 65,
76, 76, 73, 60,
81, 83, 73, 78,
72, 71, 54, 81,
74, 72, 74, 73,
67, 82, 66, 61,
70, 80, 57, 80,
67, 84, 69, 65,
82, 67, 72, 77,
67, 73, 77, 63,
72, 75, 71, 73,
75, 82, 73, 72,
77, 67, 81, 78,
75, 74, 68, 63,
71, 76, 67, 97,
71, 69, 68, 60,
66, 72, 78, 61,
64, 72, 85, 79,
70, 68, 72, 76,
69, 69, 69, 67,
63, 64, 72, 61,
77, 81, 67, 61,
60, 67, 72, 68,
54, 61, 63, 71,
54, 66, 55, 62,
73, 69, 64, 62,
72, 62, 70, 77,
75, 72, 65, 69,
70, 63, 81, 76,
65, 76, 68, 59,
54, 61, 83, 78,
70, 55, 56, 59,
77, 51, 69, 56,
48, 69, 62, 61,
70, 62, 53, 75,
61, 59, 67, 54,
58, 59, 47, 60,
65, 59, 66, 66,
65, 72, 62, 53,
46, 59, 61, 83,
62, 57, 58, 65,
62, 66, 63, 59,
54, 49, 64, 55,
55, 54, 61, 41,
52, 59, 64, 54,
60, 61, 51, 58,
61, 58, 60, 83,
65, 56, 74, 52,
46, 62, 46, 46,
53, 50, 66, 60,
59, 50, 48, 50,
50, 62, 59, 51,
39, 52, 67, 52,
45, 69, 60, 52,
54, 42, 66, 61,
61, 46, 46, 66,
59, 55, 47, 57,
52, 64, 50, 49,
47, 59, 46, 45,
55, 44, 55, 51,
68, 53, 60, 45,
46, 49, 58, 61,
66, 51, 46, 44,
59, 51, 42, 44,
52, 48, 42, 45,
39, 37, 47, 49,
62, 50, 50, 35,
35, 47, 53, 46,
49, 50, 53, 49,
55, 52, 41, 59,
54, 38, 27, 40,
44, 45, 43, 40,
38, 48, 51, 44,
47, 43, 42, 54,
40, 51, 50, 41,
41, 49, 43, 58,
37, 45, 52, 44,
44, 46, 39, 47,
30, 51, 54, 39,
36, 42, 46, 36,
43, 44, 45, 34,
48, 52, 47, 44,
39, 54, 41, 43,
42, 48, 42, 46,
48, 45, 52, 45,
40, 41, 44, 52,
43, 54, 46, 36,
50, 35, 40, 41,
43, 60, 47, 44,
54, 39, 46, 44,
41, 40, 39, 37,
56, 35, 32, 35,
32, 44, 31, 35,
48, 40, 41, 39,
44, 34, 44, 40,
30, 38, 38, 34,
46, 38, 41, 40,
40, 41, 47, 35,
39, 40, 47, 31,
31, 39, 35, 31,
48, 43, 25, 38,
41, 48, 31, 30,
27, 37, 36, 40,
41, 34, 29, 31,
43, 43, 34, 23,
38, 38, 31, 35,
38, 43, 28, 31,
34, 39, 29, 34,
36, 30, 36, 40,
42, 34, 45, 39,
28, 35, 47, 33,
23, 33, 31, 30,
33, 34, 34, 34,
52, 33, 31, 30,
41, 34, 20, 31,
41, 30, 30, 30,
31, 37, 26, 32,
40, 38, 33, 37,
21, 44, 41, 40,
35, 28, 35, 27,
36, 26, 40, 34,
31, 30, 31, 29,
29, 32, 38, 33,
25, 35, 43, 29,
39, 29, 38, 39,
29, 32, 34, 32,
33, 28, 32, 32,
19, 25, 34, 31,
25, 25, 28, 22,
37, 29, 31, 31,
36, 30, 21, 33,
35, 33, 22, 26,
24, 21, 30, 32,
27, 35, 30, 27,
28, 20, 32, 33,
29, 33, 32, 30,
35, 19, 28, 33,
34, 30, 18, 22,
24, 29, 20, 30,
34, 33, 22, 31,
35, 29, 21, 18,
32, 25, 24, 28,
32, 31, 26, 21,
31, 26, 24, 24,
36, 28, 27, 29,
21, 27, 27, 27,
28, 20, 22, 30,
24, 22, 27, 29,
25, 26, 25, 29,
28, 16, 24, 40,
12, 23, 22, 21,
30, 19, 31, 21,
25, 29, 19, 30,
17, 36, 18, 27,
36, 26, 28, 22,
29, 29, 17, 26,
22, 22, 21, 25,
19, 22, 25, 26,
29, 25, 28, 26,
25, 23, 23, 16,
27, 18, 21, 26,
32, 21, 28, 25,
14, 20, 14, 17,
29, 21, 15, 24,
22, 20, 23, 18,
22, 19, 22, 19,
19, 18, 25, 22,
24, 25, 25, 18,
20, 27, 26, 19,
28, 25, 15, 20,
20, 18, 27, 21,
22, 20, 21, 23,
23, 19, 20, 19,
23, 22, 21, 22,
26, 21, 30, 14,
20, 21, 14, 21,
18, 28, 22, 27,
17, 25, 19, 14,
22, 21, 15, 19,
9, 22, 17, 13,
26, 16, 15, 19,
16, 9, 11, 15,
10, 15, 13, 12,
16, 19, 12, 23,
17, 11, 13, 21,
17, 13, 13, 15,
13, 11, 12, 13,
22, 20, 11, 16,
16, 19, 12, 9,
15, 18, 17, 11,
16, 15, 17, 11,
14, 18, 14, 19,
14, 7, 13, 19,
18, 18, 11, 17,
13, 19, 13, 19,
20, 16, 17, 8,
7, 12, 10, 14,
8, 13, 12, 15,
11, 18, 22, 20,
12, 17, 10, 9,
10, 13, 11, 14,
7, 15, 9, 17,
13, 6, 16, 9,
16, 11, 12, 14,
10, 12, 21, 6,
10, 11, 11, 14,
23, 7, 8, 22,
16, 14, 15, 12,
20, 16, 9, 15,
5, 12, 8, 11,
12, 10, 6, 23,
9, 12, 12, 7,
13, 14, 11, 9,
9, 12, 10, 9,
16, 9, 7, 10,
17, 15, 10, 13,
6, 15, 8, 7,
9, 10, 5, 12,
5, 12, 10, 14,
7, 9, 10, 13,
12, 10, 11, 20,
12, 10, 12, 10,
2, 13, 13, 7,
11, 10, 10, 11,
5, 6, 11, 14,
7, 13, 4, 9,
10, 3, 7, 8,
14, 11, 9, 13,
7, 8, 7, 9,
13, 10, 9, 5,
11, 5, 15, 7,
10, 6, 3, 2,
7, 9, 9, 6,
15, 12, 9, 7,
10, 12, 7, 6,
8, 8, 8, 6,
6, 6, 5, 5,
9, 2, 4, 3,
5, 6, 6, 6,
2, 4, 5, 5,
5, 6, 5, 4,
3, 5, 4, 8,
3, 11, 6, 5,
3, 4, 8, 2,
5, 6, 8, 5,
13, 8, 6, 7,
6, 5, 3, 7,
7, 3, 2, 4,
5, 5, 4, 5,
2, 7, 6, 4,
9, 2, 4, 7,
3, 6, 5, 4,
2, 3, 11, 2,
3, 6, 4, 9,
4, 2, 1, 10,
7, 4, 6, 4,
8, 6, 6, 4,
1, 3, 4, 4,
3, 1, 5, 3,
6, 6, 4, 4,
4, 4, 4, 2,
2, 5, 2, 3,
0, 4, 9, 3,
2, 2, 3, 1,
3, 3, 3, 4,
5, 2, 1, 1,
4, 2, 3, 2,
4, 2, 5, 2,
7, 0, 3, 1,
3, 1, 0, 4,
1, 0, 5, 1,
2, 2, 1, 2,
1, 3, 2, 5,
3, 1, 1, 2,
0, 1, 0, 0,
1, 1, 2, 2,
1, 1, 2, 1,
5, 1, 3, 0,
1, 3, 0, 0,
3, 0, 1, 2,
0, 2, 2, 1,
0, 0, 2, 0,
3, 1, 1, 2,
1, 0, 1, 1,
0, 0, 1, 0,
1, 0, 1, 0,
2, 0, 0, 0,
0, 1, 0, 0,
0, 0, 0, 3,
0, 0, 0, 0,
0, 0, 0, 0,
0, 0, 1, 0,
0, 0, 0, 0,
0, 0, 0, 0,
0, 0, 0, 0,
0, 0, 0, 0,
0, 0, 0, 0,
0, 0, 0, 0,
0, 0, 0, 0,
0, 0, 0, 0,
0, 0, 0, 0,
0, 0, 0, 0,
0, 0, 0, 0,
0, 0, 0, 0,
0, 0, 0, 0,
0, 0, 0, 1,
0, 0, 0, 0,
0, 0, 0, 0,
0, 0, 0, 0,
0, 0, 0, 0,
0, 0, 0, 0,
0, 0, 1, 0,
0, 0, 0, 0,
0, 0, 0, 0,
0, 0, 0, 0,
0, 0, 0, 0,
0, 0, 0, 0,
0, 0, 0, 1,
0, 0, 0, 0,
0, 0, 0, 0,
0, 0, 0, 0,
0, 0, 0, 0,
0, 0, 0, 0,
0, 0, 0, 0,
0, 0, 0, 1,
0, 0, 0, 0,
0, 0, 0, 0,
1, 0, 0, 0,
0, 0, 0, 0,
1, 0, 0, 0,
0, 0, 0, 0,
0, 0, 0, 0,
0, 1, 0, 0,
0, 0, 0, 0,
0, 0, 1, 0,
0, 0, 0, 0,
0, 0, 0, 0,
0, 0, 0, 0,
0, 0, 0, 0,
0, 0, 0, 0,
0, 0, 0, 0,
0, 0, 0, 0,
0, 0, 0, 0,
0, 0, 0, 0,
0, 0, 0, 0,
0, 1, 0, 0,
0, 0, 0, 0,
0, 0, 0, 0,
0, 0, 0, 0,
0, 0, 0, 0,
0, 0, 0, 0,
0, 0, 0, 0,
0, 0, 0, 0,
0, 0, 0, 0,
0, 0, 0, 0,
0, 0, 0, 0,
0, 0, 0, 0,
0, 0, 0, 0,
0, 0, 0, 0,
0, 0, 0, 0,
0, 0, 0, 0,
0, 0, 0, 0,
0, 0, 0, 0,
0, 0, 0, 0,
0, 0, 0, 0,
0, 0, 0, 0,
0, 0, 0, 0,
0, 0, 0, 0,
0, 0, 0, 0,
0, 0, 0, 0,
0, 0, 0, 0,
0, 0, 0, 1,
0, 0, 0, 0,
0, 0, 0, 0,
0, 0, 0, 0,
0, 0, 0, 0,
0, 0, 0, 0,
1, 0, 0, 0,
0, 0, 0, 0,
0, 0, 0, 0,
1, 0, 0, 0,
0, 0, 0, 0,
0, 0, 0, 1,
0, 0, 0, 0,
1, 0, 0, 0,
0, 0, 1, 0,
0, 0, 0, 0,
0, 0, 0, 0,
0, 0, 0, 0,
0, 0, 0, 0,
0, 0, 0, 0,
0, 0, 0, 0,
0, 0, 0, 0,
0, 0, 0, 1,
0, 0, 0, 0,
0, 0, 0, 0,
0, 0, 0, 0,
0, 0, 0, 0,
0, 0, 0, 0,
0, 0, 0, 0,
0, 0, 0, 0,
0, 0, 0, 0,
0, 0, 0, 0,
0, 0, 0, 0,
0, 0, 0, 0,
0, 0, 0, 0,
0, 0, 0, 0,
0, 0, 0, 0,
0, 0, 0, 0,
0, 0, 0, 0,
0, 0, 0, 0,
0, 0, 0, 0,
0, 0, 0, 0,
0, 0, 0, 0,
0, 0, 0, 0,
0, 0, 0, 0,
0, 0, 0, 0,
0, 0, 0, 0,
0, 0, 0, 0,
0, 0, 0, 0,
0, 0, 0, 0,
0, 0, 0, 0,
0, 0, 0, 0,
0, 0, 0, 0,
0, 0, 0, 0,
0, 0, 0, 0,
0, 0, 0, 0,
0, 0, 0, 0,
0, 0, 0, 0,
0, 0, 0, 0,
0, 0, 0, 0,
0, 0, 0, 0,
1, 1, 0, 0,
0, 0, 0, 0,
0, 0, 1, 0,
0, 0, 0, 0,
0, 0, 0, 0,
0, 0, 0, 0,
0, 0, 0, 0,
0, 0, 0, 0,
0, 0, 0, 0,
0, 0, 0, 0,
0, 0, 0, 0,
0, 0, 0, 0,
0, 0, 0, 0,
0, 0, 0, 0,
0, 0, 0, 0,
0, 0, 0, 0,
0, 0, 0, 0,
0, 0, 0, 0,
0, 0, 0, 0,
0, 0, 0, 0,
0, 0, 0, 0,
0, 0, 0, 0,
0, 0, 0, 0,
0, 0, 1, 1,
0, 0, 0, 0,
0, 0, 0, 0,
0, 0, 0, 0,
0, 0, 0, 0,
0, 0, 0, 0,
0, 0, 0, 0,
0, 0, 1, 0,
0, 0, 0, 0,
0, 0, 0, 0,
0, 0, 0, 0,
0, 0, 0, 0,
0, 0, 0, 0,
0, 0, 0, 1,
0, 0, 0, 0,
0, 0, 0, 0,
0, 0, 0, 0,
0, 0, 0, 0,
0, 0, 0, 0,
0, 0, 0, 0,
0, 0, 0, 0,
0, 0, 0, 0,
0, 0, 0, 0,
0, 0, 0, 0,
0, 0, 0, 0,
0, 0, 0, 0,
0, 0, 0, 0,
0, 0, 0, 0,
0, 0, 0, 0,
0, 0, 0, 0,
0, 0, 0, 0,
0, 0, 0, 0,
0, 0, 0, 0,
0, 0, 0, 0,
0, 0, 0, 0,
0, 0, 0, 0,
0, 0, 0, 0,
0, 0, 0, 0,
0, 0, 0, 0,
1, 0, 0, 0,
0, 0, 0, 0,
0, 0, 0, 0,
0, 0, 0, 0,
0, 0, 0, 0,
0, 0, 0, 0,
0, 0, 0, 0,
0, 0, 0, 0,
0, 0, 0, 0,
0, 0, 0, 0,
0, 0, 0, 0,
0, 0, 0, 0,
0, 0, 0, 0,
0, 0, 0, 0,
0, 0, 0, 0,
0, 0, 0, 0,
0, 0, 0, 0,
0, 0, 0, 0,
0, 0, 0, 0,
0, 0, 0, 0,
0, 0, 0, 0,
0, 0, 0, 0,
0, 0, 0, 0,
0, 0, 0, 0,
0, 0, 0, 0,
0, 0, 0, 0,
0, 0, 0, 1,
0, 0, 0, 0,
0, 0, 0, 0,
1, 0, 0, 0,
0, 0, 0, 0,
0, 0, 0, 0,
0, 0, 0, 0,
0, 0, 0, 0,
0, 0, 0, 0,
0, 0, 0, 0,
0, 0, 0, 0,
0, 0, 0, 0,
0, 0, 0, 0,
#ENDOFDATA   :