File: dtsa2/DemoSpectra/K411-K412/K411 std.msa
#FORMAT      : EMSA/MAS Spectral Data File
#VERSION     : 1.0
#TITLE       : Bruker AXS spectrum K411
#DATE        : 29-JUL-2008
#TIME        : 10:36
#OWNER       : Bruker AXS
#NPOINTS     : 4096
#NCOLUMNS    : 4
#XUNITS      : eV
#YUNITS      : counts
#DATATYPE    : Y
#XPERCHAN    : 5.00409
#OFFSET      : -477.824
#BEAMKV      : 15
#SIGNALTYPE  : EDS
#ELEVANGLE   : 40
#AZIMANGLE   : 180
#LIVETIME    : 59.358
#REALTIME    : 63.057
#PROBECUR    : 2.5
#TAUWIND     : 0
#TDEADLYR    : 0.00001
#TACTLYR     : 0.045
#TALWIND     : 0.003
#CHOFFSET    : 0.0
#XLABEL      : Energy (eV)
#YLABEL      : Counts
#EDSDET      : SDDUTW
##D2STDCMP   : K411,(O:42.3667),(Mg:8.8465),(Si:25.3817),(Ca:11.0563),(Fe:11.2087),2.95
#SPECTRUM    :
0, 0, 0, 0,
0, 0, 0, 0,
0, 0, 0, 0,
0, 0, 0, 0,
0, 0, 0, 0,
0, 0, 0, 0,
0, 0, 0, 0,
0, 0, 0, 0,
0, 0, 0, 0,
0, 0, 0, 0,
0, 0, 0, 0,
0, 0, 0, 0,
0, 0, 0, 0,
0, 0, 0, 0,
0, 0, 0, 0,
0, 0, 0, 0,
0, 0, 0, 0,
0, 0, 0, 0,
0, 0, 0, 0,
0, 0, 0, 0,
2, 2, 10, 38,
147, 441, 1186, 3214,
7194, 14834, 27122, 44653,
65373, 86055, 101957, 107430,
102844, 88250, 68558, 48022,
30146, 17336, 8817, 3754,
1264, 292, 42, 35,
0, 0, 0, 0,
9, 34, 60, 77,
81, 80, 74, 71,
68, 68, 71, 74,
75, 75, 71, 74,
69, 71, 67, 68,
73, 79, 86, 92,
102, 112, 123, 134,
147, 168, 197, 237,
279, 329, 377, 434,
486, 527, 536, 527,
493, 466, 404, 362,
308, 274, 240, 219,
209, 212, 205, 220,
224, 231, 238, 229,
233, 244, 239, 245,
244, 231, 247, 281,
265, 268, 287, 312,
342, 381, 405, 468,
565, 692, 905, 1178,
1521, 2074, 2802, 3902,
5320, 6994, 9144, 11572,
13962, 16615, 18490, 19978,
20117, 19608, 18286, 16181,
13456, 10529, 7901, 5482,
3578, 2454, 1527, 1046,
606, 460, 411, 376,
323, 369, 373, 384,
416, 423, 373, 377,
387, 365, 377, 468,
502, 633, 758, 856,
1052, 1182, 1271, 1497,
1529, 1569, 1617, 1540,
1398, 1294, 1070, 983,
812, 685, 587, 485,
443, 379, 377, 334,
341, 322, 352, 357,
342, 343, 326, 333,
340, 331, 336, 308,
369, 343, 359, 365,
332, 331, 341, 340,
333, 361, 348, 356,
364, 379, 378, 355,
389, 353, 406, 397,
395, 389, 404, 437,
428, 409, 359, 460,
458, 412, 437, 431,
470, 447, 483, 448,
479, 454, 444, 497,
478, 481, 495, 460,
485, 480, 510, 495,
499, 478, 526, 498,
537, 532, 531, 579,
521, 524, 531, 554,
579, 548, 546, 573,
597, 609, 714, 772,
881, 1003, 1266, 1591,
2046, 2575, 3180, 4052,
4877, 5783, 6778, 7471,
8314, 8950, 9250, 9638,
9052, 8739, 8125, 7121,
6209, 5218, 4338, 3536,
2768, 2251, 1699, 1410,
1123, 894, 773, 689,
676, 572, 531, 521,
480, 502, 512, 459,
500, 462, 518, 477,
483, 484, 531, 515,
483, 502, 469, 494,
504, 479, 514, 491,
511, 537, 537, 548,
506, 584, 531, 568,
539, 538, 500, 516,
559, 579, 532, 550,
557, 551, 525, 548,
558, 540, 538, 487,
519, 510, 522, 476,
535, 554, 545, 541,
570, 568, 590, 625,
674, 781, 959, 1233,
1480, 1986, 2491, 3405,
4532, 5538, 7384, 9231,
11331, 13515, 15687, 17857,
20170, 21909, 23012, 24186,
24568, 23865, 23046, 21554,
19653, 17623, 15336, 13023,
11158, 9352, 7416, 5951,
4702, 3889, 3146, 2770,
2144, 1914, 1751, 1560,
1498, 1295, 1122, 1087,
1005, 885, 774, 725,
658, 578, 535, 461,
495, 453, 410, 396,
365, 343, 352, 328,
363, 321, 313, 355,
370, 329, 348, 329,
350, 345, 335, 303,
341, 337, 338, 304,
294, 332, 363, 311,
359, 326, 322, 325,
341, 317, 331, 336,
348, 349, 339, 329,
309, 357, 328, 302,
312, 309, 295, 328,
301, 324, 355, 352,
340, 321, 306, 326,
315, 355, 336, 302,
333, 316, 367, 346,
319, 330, 328, 299,
312, 356, 340, 303,
340, 298, 301, 360,
299, 333, 325, 352,
331, 322, 323, 309,
317, 320, 337, 312,
317, 301, 310, 296,
321, 291, 297, 280,
325, 293, 291, 313,
287, 307, 297, 305,
312, 306, 307, 328,
318, 305, 312, 305,
320, 316, 301, 325,
279, 318, 265, 309,
286, 271, 286, 307,
301, 308, 314, 304,
333, 275, 298, 302,
311, 287, 293, 300,
332, 287, 291, 292,
303, 316, 296, 284,
286, 312, 262, 267,
259, 292, 281, 305,
282, 294, 291, 280,
246, 254, 278, 287,
259, 263, 284, 272,
269, 279, 281, 282,
273, 259, 274, 272,
272, 259, 233, 274,
259, 275, 279, 282,
260, 269, 271, 283,
286, 251, 261, 296,
267, 260, 257, 266,
250, 244, 270, 261,
259, 251, 273, 261,
271, 269, 245, 287,
263, 289, 257, 255,
300, 268, 256, 265,
268, 262, 259, 265,
264, 275, 273, 253,
258, 232, 234, 269,
261, 233, 240, 246,
273, 248, 249, 259,
226, 234, 260, 255,
258, 254, 240, 253,
269, 255, 244, 261,
249, 244, 259, 243,
260, 236, 269, 243,
245, 225, 254, 246,
241, 237, 238, 225,
246, 231, 260, 224,
249, 249, 248, 224,
243, 249, 239, 230,
260, 251, 215, 246,
230, 228, 232, 242,
248, 236, 228, 249,
243, 217, 250, 215,
241, 202, 270, 232,
227, 229, 222, 209,
213, 230, 210, 210,
202, 252, 233, 220,
214, 243, 245, 241,
250, 235, 221, 210,
222, 206, 226, 205,
243, 249, 263, 205,
231, 236, 227, 228,
243, 236, 236, 246,
270, 254, 264, 287,
276, 314, 304, 344,
364, 444, 484, 570,
639, 734, 881, 1025,
1254, 1451, 1706, 2019,
2191, 2446, 2717, 3071,
3418, 3707, 3869, 4074,
4273, 4515, 4493, 4541,
4490, 4302, 4032, 3948,
3627, 3328, 3045, 2777,
2494, 2156, 1848, 1657,
1374, 1185, 996, 856,
719, 652, 518, 448,
377, 361, 280, 270,
280, 240, 245, 193,
179, 204, 188, 233,
212, 211, 227, 216,
225, 219, 216, 208,
219, 234, 220, 244,
254, 281, 268, 325,
312, 331, 379, 376,
383, 478, 481, 511,
583, 574, 609, 632,
694, 668, 694, 656,
694, 651, 658, 608,
613, 600, 562, 519,
473, 448, 445, 416,
379, 344, 306, 292,
254, 231, 234, 225,
222, 175, 167, 164,
172, 183, 174, 165,
154, 175, 172, 183,
160, 192, 179, 150,
174, 153, 184, 167,
167, 138, 154, 164,
162, 166, 131, 151,
175, 149, 164, 146,
147, 156, 149, 145,
152, 149, 138, 146,
136, 162, 133, 147,
138, 167, 140, 160,
149, 137, 155, 130,
161, 173, 141, 152,
157, 145, 139, 130,
146, 159, 135, 153,
170, 145, 151, 156,
168, 146, 150, 152,
142, 123, 140, 133,
156, 140, 144, 158,
154, 153, 134, 147,
150, 145, 131, 150,
153, 149, 166, 138,
143, 138, 154, 136,
155, 145, 146, 135,
152, 133, 136, 125,
159, 117, 139, 141,
162, 139, 151, 148,
139, 138, 142, 141,
137, 134, 138, 150,
144, 133, 140, 139,
128, 143, 143, 122,
143, 120, 147, 121,
125, 114, 139, 122,
100, 122, 115, 124,
132, 134, 144, 113,
138, 120, 128, 114,
138, 124, 137, 123,
168, 134, 161, 159,
132, 134, 114, 120,
143, 140, 139, 121,
127, 140, 126, 120,
101, 125, 116, 140,
124, 129, 131, 116,
105, 115, 125, 150,
124, 135, 121, 120,
132, 144, 116, 126,
129, 122, 118, 108,
115, 114, 130, 115,
128, 116, 118, 116,
112, 129, 121, 130,
100, 123, 110, 117,
127, 114, 118, 104,
116, 116, 120, 101,
128, 109, 128, 128,
123, 118, 114, 118,
96, 118, 100, 88,
119, 105, 114, 99,
129, 110, 117, 113,
128, 110, 121, 99,
115, 106, 103, 112,
114, 98, 103, 117,
117, 110, 119, 132,
114, 112, 131, 103,
108, 107, 92, 110,
100, 119, 116, 128,
120, 100, 122, 109,
104, 96, 107, 109,
111, 100, 108, 104,
105, 115, 105, 105,
106, 103, 100, 101,
100, 113, 115, 103,
112, 98, 114, 116,
93, 92, 86, 97,
108, 104, 106, 107,
105, 103, 117, 90,
101, 114, 104, 93,
119, 98, 107, 74,
83, 81, 96, 98,
99, 104, 108, 94,
88, 95, 118, 99,
94, 99, 96, 101,
99, 106, 93, 97,
71, 89, 113, 104,
96, 103, 113, 114,
77, 109, 104, 90,
88, 91, 102, 95,
118, 104, 109, 87,
96, 111, 98, 90,
116, 120, 97, 111,
111, 119, 106, 90,
108, 87, 112, 103,
85, 103, 92, 100,
100, 89, 107, 119,
97, 97, 107, 94,
86, 83, 87, 75,
102, 97, 75, 95,
78, 88, 108, 83,
96, 82, 81, 84,
76, 90, 81, 99,
84, 104, 104, 77,
84, 88, 87, 102,
88, 101, 91, 82,
97, 91, 88, 85,
82, 99, 94, 112,
99, 98, 111, 113,
112, 97, 127, 132,
138, 161, 158, 196,
201, 232, 271, 312,
359, 410, 439, 469,
497, 562, 653, 701,
820, 834, 926, 939,
1070, 1071, 1122, 1130,
1184, 1259, 1289, 1284,
1235, 1193, 1228, 1202,
1130, 1095, 1066, 979,
897, 858, 765, 685,
690, 581, 508, 479,
444, 415, 358, 308,
287, 238, 234, 208,
170, 164, 128, 124,
116, 118, 99, 95,
105, 92, 82, 88,
88, 100, 89, 71,
70, 85, 80, 75,
72, 79, 76, 81,
74, 86, 67, 69,
72, 76, 81, 83,
77, 74, 72, 70,
78, 84, 78, 79,
69, 78, 73, 72,
81, 75, 74, 65,
81, 79, 62, 78,
73, 70, 76, 73,
75, 69, 72, 56,
61, 76, 65, 66,
75, 75, 65, 76,
82, 73, 61, 68,
73, 69, 71, 81,
86, 80, 90, 91,
101, 90, 107, 82,
99, 89, 117, 96,
107, 132, 112, 122,
130, 130, 151, 154,
174, 167, 181, 174,
174, 187, 233, 213,
206, 205, 203, 196,
193, 217, 199, 201,
206, 175, 168, 166,
162, 145, 168, 135,
135, 145, 104, 103,
117, 103, 109, 83,
96, 99, 100, 76,
74, 55, 84, 70,
64, 73, 64, 69,
68, 59, 66, 53,
79, 61, 56, 53,
52, 62, 47, 60,
73, 57, 73, 79,
69, 66, 60, 63,
74, 60, 51, 69,
51, 65, 58, 80,
64, 53, 66, 70,
50, 66, 65, 66,
69, 66, 63, 69,
61, 49, 59, 43,
50, 70, 54, 57,
71, 57, 82, 66,
65, 49, 63, 52,
65, 46, 72, 63,
59, 53, 55, 54,
56, 69, 50, 62,
60, 61, 42, 42,
54, 47, 57, 53,
63, 75, 66, 52,
53, 49, 61, 50,
58, 57, 52, 57,
56, 60, 65, 63,
47, 46, 54, 46,
63, 43, 58, 49,
44, 37, 61, 49,
59, 52, 61, 52,
53, 50, 57, 47,
49, 45, 51, 48,
49, 53, 50, 57,
50, 52, 44, 51,
44, 58, 42, 54,
63, 59, 62, 60,
54, 54, 41, 58,
44, 53, 42, 47,
47, 52, 55, 47,
46, 53, 55, 50,
59, 45, 53, 48,
50, 55, 51, 39,
50, 39, 40, 47,
60, 45, 53, 45,
52, 55, 52, 57,
56, 67, 59, 49,
43, 47, 46, 41,
53, 51, 38, 42,
49, 47, 36, 49,
41, 49, 49, 49,
39, 53, 41, 48,
46, 55, 43, 49,
65, 41, 44, 46,
41, 42, 42, 45,
39, 52, 45, 44,
40, 53, 44, 41,
53, 39, 50, 39,
64, 40, 35, 50,
45, 37, 49, 47,
47, 43, 51, 39,
37, 51, 48, 57,
39, 34, 41, 50,
43, 42, 39, 33,
54, 52, 48, 31,
33, 39, 56, 58,
44, 36, 48, 47,
48, 50, 56, 48,
36, 53, 41, 35,
47, 48, 47, 40,
34, 44, 42, 39,
36, 34, 34, 41,
47, 44, 45, 30,
44, 38, 51, 46,
44, 31, 33, 54,
31, 34, 31, 44,
41, 43, 37, 45,
37, 49, 49, 35,
39, 35, 38, 43,
33, 38, 42, 35,
40, 32, 43, 36,
34, 50, 40, 41,
36, 37, 33, 35,
39, 31, 34, 38,
53, 42, 32, 41,
40, 44, 48, 41,
41, 37, 52, 40,
37, 40, 47, 39,
32, 39, 48, 35,
40, 35, 40, 40,
32, 39, 33, 33,
25, 45, 34, 32,
30, 32, 36, 31,
33, 33, 37, 29,
34, 33, 38, 46,
31, 30, 42, 36,
33, 35, 34, 32,
35, 37, 44, 21,
47, 33, 27, 32,
36, 30, 48, 34,
27, 34, 44, 34,
42, 36, 34, 39,
32, 33, 27, 26,
29, 31, 26, 38,
36, 26, 44, 31,
32, 35, 29, 33,
34, 34, 34, 39,
35, 31, 28, 37,
37, 51, 40, 28,
37, 33, 31, 33,
27, 38, 39, 34,
26, 39, 30, 27,
31, 39, 39, 47,
42, 22, 42, 26,
37, 27, 38, 36,
26, 33, 42, 27,
30, 35, 31, 34,
39, 31, 35, 38,
39, 38, 31, 29,
23, 24, 29, 26,
37, 24, 40, 25,
39, 26, 34, 26,
35, 19, 30, 25,
39, 37, 35, 36,
29, 37, 31, 35,
36, 35, 34, 28,
35, 23, 33, 21,
31, 28, 22, 38,
27, 37, 38, 24,
28, 30, 26, 35,
30, 45, 27, 33,
37, 22, 34, 25,
32, 30, 20, 19,
26, 33, 33, 22,
27, 30, 31, 32,
22, 29, 27, 19,
21, 26, 29, 28,
37, 28, 35, 25,
31, 36, 25, 32,
19, 33, 23, 21,
27, 20, 27, 28,
26, 24, 28, 26,
20, 27, 28, 22,
32, 33, 25, 32,
22, 21, 19, 27,
28, 26, 30, 23,
25, 19, 33, 26,
24, 30, 21, 23,
14, 16, 24, 21,
27, 21, 19, 25,
28, 23, 20, 26,
29, 30, 25, 21,
16, 25, 21, 30,
29, 23, 29, 22,
29, 35, 26, 28,
17, 25, 21, 39,
19, 29, 28, 21,
27, 22, 27, 28,
27, 26, 20, 26,
25, 23, 15, 21,
26, 22, 25, 27,
12, 30, 19, 23,
31, 24, 21, 23,
28, 23, 26, 18,
25, 26, 21, 26,
23, 20, 31, 44,
20, 19, 27, 19,
24, 27, 23, 24,
24, 22, 30, 20,
27, 15, 14, 22,
19, 16, 19, 17,
20, 22, 21, 21,
15, 21, 18, 20,
20, 23, 17, 16,
13, 22, 22, 17,
28, 17, 25, 21,
21, 21, 30, 20,
18, 19, 17, 16,
15, 17, 23, 7,
19, 19, 18, 14,
18, 26, 16, 19,
19, 21, 20, 18,
18, 16, 16, 16,
20, 15, 15, 25,
21, 27, 12, 22,
17, 17, 16, 25,
23, 12, 24, 14,
21, 22, 13, 29,
14, 22, 19, 17,
13, 21, 25, 23,
18, 12, 21, 22,
21, 14, 13, 20,
20, 16, 18, 18,
21, 18, 17, 16,
27, 16, 22, 18,
10, 13, 7, 17,
21, 24, 16, 16,
13, 18, 20, 15,
17, 18, 20, 9,
15, 22, 15, 15,
17, 13, 20, 15,
20, 23, 21, 18,
15, 25, 19, 16,
8, 14, 19, 22,
12, 16, 16, 14,
13, 13, 8, 18,
12, 16, 20, 16,
17, 21, 14, 19,
15, 14, 24, 16,
12, 12, 13, 18,
13, 18, 13, 17,
17, 12, 14, 13,
15, 9, 22, 18,
9, 10, 8, 21,
7, 11, 18, 10,
12, 18, 17, 16,
14, 13, 9, 11,
18, 12, 19, 11,
11, 18, 15, 19,
9, 12, 13, 12,
18, 22, 13, 17,
15, 11, 17, 14,
18, 15, 11, 14,
12, 8, 14, 9,
8, 11, 13, 16,
9, 21, 12, 16,
18, 16, 17, 20,
14, 10, 3, 14,
12, 7, 12, 11,
12, 14, 10, 7,
12, 11, 13, 8,
12, 18, 8, 12,
12, 16, 14, 9,
7, 12, 7, 8,
15, 14, 12, 10,
21, 16, 13, 10,
9, 14, 19, 13,
6, 17, 8, 8,
14, 9, 13, 11,
13, 10, 13, 18,
16, 4, 13, 10,
11, 12, 5, 6,
10, 11, 12, 19,
11, 10, 12, 15,
13, 13, 11, 14,
7, 16, 15, 6,
18, 11, 3, 10,
8, 4, 17, 9,
10, 18, 13, 14,
9, 11, 10, 5,
8, 12, 10, 12,
10, 10, 11, 15,
14, 3, 9, 15,
10, 8, 9, 15,
9, 12, 7, 11,
12, 14, 8, 13,
13, 7, 7, 7,
10, 12, 10, 9,
11, 9, 8, 5,
10, 10, 12, 5,
7, 13, 11, 8,
9, 7, 9, 9,
9, 9, 5, 6,
6, 4, 12, 6,
13, 11, 9, 9,
14, 10, 10, 9,
15, 5, 6, 10,
5, 8, 5, 17,
12, 8, 11, 12,
10, 7, 5, 8,
8, 8, 5, 8,
8, 8, 6, 12,
12, 11, 9, 8,
11, 11, 6, 8,
13, 11, 7, 4,
4, 7, 6, 7,
5, 15, 8, 6,
6, 8, 10, 9,
2, 6, 3, 10,
8, 9, 9, 4,
9, 12, 6, 12,
3, 11, 7, 8,
9, 6, 11, 6,
10, 8, 5, 9,
4, 11, 8, 9,
8, 3, 6, 6,
10, 8, 11, 5,
1, 7, 8, 9,
4, 8, 9, 7,
9, 7, 5, 4,
6, 5, 4, 7,
8, 3, 6, 9,
6, 4, 5, 7,
5, 9, 3, 6,
5, 6, 3, 6,
4, 4, 9, 4,
9, 5, 6, 8,
8, 9, 4, 6,
6, 5, 5, 3,
3, 5, 3, 6,
6, 4, 3, 8,
2, 1, 6, 8,
4, 4, 9, 5,
4, 3, 2, 3,
4, 6, 7, 2,
10, 3, 0, 5,
2, 4, 2, 6,
7, 1, 3, 5,
6, 1, 5, 5,
3, 5, 7, 4,
1, 4, 11, 3,
4, 6, 5, 7,
2, 1, 6, 1,
1, 7, 7, 5,
2, 2, 4, 8,
3, 4, 6, 2,
2, 3, 4, 1,
7, 3, 4, 5,
3, 3, 9, 4,
1, 3, 3, 6,
3, 9, 6, 2,
2, 2, 6, 4,
1, 6, 3, 3,
5, 2, 8, 3,
5, 5, 3, 6,
1, 10, 5, 2,
5, 7, 4, 3,
1, 5, 5, 2,
1, 4, 5, 3,
3, 1, 2, 3,
2, 10, 3, 3,
2, 4, 3, 8,
2, 5, 6, 6,
5, 5, 1, 7,
4, 3, 2, 1,
4, 4, 4, 4,
3, 3, 1, 4,
3, 3, 3, 3,
1, 2, 1, 2,
0, 2, 4, 3,
0, 7, 1, 2,
1, 1, 2, 5,
2, 3, 2, 2,
0, 3, 0, 3,
1, 1, 1, 3,
4, 3, 2, 5,
4, 1, 0, 2,
2, 2, 5, 2,
0, 6, 0, 2,
1, 1, 6, 1,
4, 4, 4, 4,
3, 2, 1, 4,
4, 1, 2, 1,
2, 4, 3, 3,
0, 2, 3, 2,
3, 1, 1, 2,
1, 1, 0, 1,
3, 1, 2, 1,
1, 5, 2, 2,
3, 1, 5, 2,
3, 2, 3, 1,
1, 1, 5, 5,
1, 2, 3, 2,
1, 1, 1, 0,
2, 1, 1, 1,
1, 2, 0, 1,
2, 2, 1, 2,
1, 0, 2, 1,
3, 0, 1, 0,
3, 0, 3, 4,
0, 3, 1, 0,
2, 0, 2, 1,
0, 1, 1, 4,
1, 0, 0, 1,
2, 0, 0, 1,
2, 1, 3, 1,
0, 1, 1, 1,
1, 0, 1, 0,
0, 1, 2, 1,
0, 0, 0, 0,
4, 1, 1, 1,
2, 1, 0, 2,
0, 0, 1, 0,
0, 0, 2, 2,
1, 0, 0, 0,
0, 0, 0, 0,
0, 0, 0, 0,
2, 1, 0, 1,
0, 0, 0, 0,
0, 1, 0, 0,
1, 1, 0, 0,
0, 0, 0, 1,
0, 1, 0, 0,
0, 0, 0, 0,
0, 0, 0, 0,
0, 0, 0, 0,
0, 0, 0, 0,
0, 0, 0, 0,
0, 1, 0, 0,
0, 0, 0, 0,
0, 0, 0, 0,
0, 0, 0, 0,
0, 0, 1, 0,
0, 0, 0, 0,
0, 0, 0, 0,
0, 0, 0, 0,
0, 0, 0, 0,
0, 0, 0, 0,
0, 0, 0, 0,
0, 0, 0, 0,
0, 0, 0, 0,
0, 0, 0, 0,
0, 0, 0, 0,
0, 0, 0, 0,
0, 0, 0, 0,
0, 0, 0, 0,
0, 0, 0, 0,
0, 0, 0, 0,
0, 0, 0, 0,
0, 0, 0, 0,
0, 0, 0, 0,
0, 0, 0, 0,
0, 0, 0, 0,
0, 0, 0, 0,
0, 0, 0, 0,
0, 0, 0, 0,
0, 0, 0, 0,
0, 0, 0, 0,
0, 0, 0, 0,
0, 0, 0, 0,
0, 0, 0, 0,
0, 0, 0, 0,
0, 0, 0, 0,
0, 0, 0, 0,
0, 0, 0, 0,
0, 0, 0, 0,
0, 0, 0, 0,
0, 0, 0, 0,
0, 0, 0, 0,
0, 0, 0, 0,
0, 0, 0, 0,
0, 0, 0, 0,
1, 0, 0, 0,
0, 0, 0, 0,
0, 0, 0, 0,
0, 0, 0, 0,
0, 0, 0, 1,
0, 0, 0, 0,
0, 0, 0, 0,
0, 0, 0, 0,
0, 0, 0, 0,
0, 0, 0, 0,
0, 0, 0, 0,
0, 0, 0, 0,
0, 0, 0, 0,
0, 0, 0, 0,
0, 0, 0, 0,
0, 0, 0, 0,
0, 0, 0, 0,
0, 0, 0, 0,
0, 0, 0, 1,
0, 0, 0, 0,
0, 0, 0, 0,
0, 0, 0, 0,
0, 0, 0, 0,
0, 0, 0, 0,
0, 0, 0, 0,
0, 0, 0, 0,
0, 0, 0, 0,
0, 0, 0, 0,
0, 0, 0, 0,
0, 0, 0, 0,
0, 0, 0, 0,
0, 0, 0, 0,
0, 0, 0, 0,
0, 0, 0, 0,
0, 0, 0, 0,
0, 0, 0, 0,
0, 0, 0, 0,
0, 0, 0, 0,
0, 0, 0, 0,
1, 0, 0, 0,
0, 0, 0, 0,
0, 0, 0, 0,
0, 0, 0, 0,
0, 0, 0, 0,
0, 0, 0, 0,
0, 0, 0, 0,
0, 0, 0, 0,
0, 0, 0, 0,
0, 0, 0, 0,
0, 0, 0, 0,
0, 0, 0, 0,
0, 0, 0, 0,
0, 0, 0, 0,
0, 0, 0, 0,
0, 0, 0, 0,
0, 0, 0, 0,
0, 0, 0, 0,
0, 0, 0, 0,
0, 0, 0, 0,
0, 0, 0, 0,
0, 0, 0, 0,
0, 0, 0, 0,
0, 0, 0, 0,
0, 0, 0, 0,
0, 0, 0, 0,
0, 0, 0, 0,
0, 0, 0, 0,
0, 0, 0, 0,
0, 0, 0, 0,
0, 0, 0, 0,
0, 0, 0, 0,
0, 0, 0, 0,
0, 0, 0, 0,
0, 0, 0, 0,
0, 0, 0, 0,
0, 0, 0, 0,
0, 0, 0, 0,
0, 0, 0, 0,
0, 0, 0, 0,
0, 0, 0, 0,
0, 0, 0, 0,
0, 0, 0, 0,
0, 0, 0, 0,
0, 0, 0, 0,
0, 0, 0, 0,
0, 0, 0, 0,
0, 0, 0, 0,
0, 0, 0, 0,
0, 0, 0, 0,
0, 0, 0, 0,
0, 0, 0, 0,
0, 0, 0, 0,
0, 0, 0, 0,
0, 0, 0, 0,
0, 0, 0, 0,
0, 0, 0, 0,
0, 0, 0, 0,
0, 0, 0, 0,
0, 0, 0, 0,
0, 0, 0, 0,
0, 0, 0, 0,
0, 0, 0, 0,
0, 0, 0, 0,
0, 0, 0, 0,
0, 0, 0, 0,
0, 0, 0, 0,
0, 0, 0, 0,
0, 0, 0, 0,
0, 0, 0, 0,
0, 0, 0, 0,
0, 0, 0, 0,
0, 0, 0, 0,
0, 0, 0, 0,
0, 0, 0, 0,
0, 0, 0, 0,
0, 0, 0, 0,
0, 1, 0, 0,
0, 0, 0, 0,
0, 0, 0, 0,
0, 0, 0, 0,
0, 0, 0, 0,
0, 0, 0, 0,
0, 0, 0, 0,
0, 0, 0, 0,
0, 0, 0, 0,
0, 0, 0, 0,
0, 0, 0, 0,
0, 0, 0, 0,
0, 0, 0, 0,
0, 0, 0, 0,
0, 0, 0, 0,
0, 0, 0, 0,
0, 0, 0, 0,
0, 0, 0, 0,
0, 0, 0, 0,
0, 0, 0, 0,
0, 0, 0, 0,
0, 0, 0, 0,
0, 0, 0, 0,
0, 0, 0, 0,
0, 0, 0, 0,
0, 0, 0, 0,
0, 0, 0, 0,
0, 0, 0, 0,
0, 0, 0, 0,
0, 0, 0, 0,
0, 0, 0, 0,
0, 0, 0, 0,
0, 0, 0, 0,
0, 0, 0, 0,
0, 0, 0, 0,
0, 0, 0, 0,
0, 0, 0, 0,
0, 0, 0, 0,
0, 0, 0, 0,
0, 0, 0, 0,
0, 0, 0, 0,
0, 0, 0, 0,
0, 0, 0, 0,
0, 0, 0, 0,
0, 0, 0, 0,
0, 0, 0, 0,
0, 0, 0, 0,
0, 0, 0, 0,
0, 0, 0, 0,
0, 0, 0, 0,
0, 0, 0, 0,
0, 0, 0, 0,
0, 0, 0, 0,
0, 0, 0, 0,
0, 0, 0, 0,
0, 0, 0, 0,
0, 0, 0, 0,
0, 0, 0, 0,
0, 0, 0, 0,
0, 0, 0, 0,
0, 0, 0, 0,
0, 0, 0, 0,
0, 0, 0, 0,
0, 0, 0, 0,
0, 0, 0, 0,
0, 0, 0, 0,
0, 0, 0, 0,
0, 0, 0, 0,
0, 0, 0, 0,
0, 0, 0, 0,
0, 0, 0, 0,
0, 0, 0, 0,
0, 0, 0, 0,
0, 0, 0, 0,
0, 0, 0, 0,
0, 0, 0, 0,
0, 0, 0, 0,
0, 0, 0, 0,
0, 0, 0, 0,
0, 0, 0, 0,
0, 0, 0, 0,
0, 0, 0, 0,
0, 0, 0, 0,
0, 0, 0, 0,
0, 0, 0, 0,
#ENDOFDATA   :