File: dtsa2/DemoSpectra/K411-K412/K412 std.msa
#FORMAT      : EMSA/MAS Spectral Data File
#VERSION     : 1.0
#TITLE       : Bruker AXS spectrum K412
#DATE        : 29-JUL-2008
#TIME        : 10:38
#OWNER       : Bruker AXS
#NPOINTS     : 4096
#NCOLUMNS    : 4
#XUNITS      : eV
#YUNITS      : counts
#DATATYPE    : Y
#XPERCHAN    : 5.00409
#OFFSET      : -477.824
#BEAMKV      : 15
#SIGNALTYPE  : EDS
#ELEVANGLE   : 40
#AZIMANGLE   : 180
#LIVETIME    : 59.351
#REALTIME    : 63.12
#PROBECUR    : 2.5
#TAUWIND     : 0
#TDEADLYR    : 0.00001
#TACTLYR     : 0.045
#TALWIND     : 0.003
#CHOFFSET    : 0.0
#XLABEL      : Energy (eV)
#YLABEL      : Counts
#EDSDET      : SDDUTW
##D2STDCMP   : K412,(O:42.758),(Mg:11.6567),(Al:4.9062),(Si:21.1982),(Ca:10.899),(Fe:7.742)
#SPECTRUM    :
0, 0, 0, 0,
0, 0, 0, 0,
0, 0, 0, 0,
0, 0, 0, 0,
0, 0, 0, 0,
0, 0, 0, 0,
0, 0, 0, 0,
0, 0, 0, 0,
0, 0, 0, 0,
0, 0, 0, 0,
0, 0, 0, 0,
0, 0, 0, 0,
0, 0, 0, 0,
0, 0, 0, 0,
0, 0, 0, 0,
0, 0, 0, 0,
0, 0, 0, 0,
0, 0, 0, 0,
0, 0, 0, 0,
0, 0, 0, 0,
0, 6, 9, 47,
124, 451, 1307, 3187,
7218, 14877, 27530, 44236,
65176, 86157, 102061, 107807,
102570, 88788, 68028, 47789,
30176, 17184, 8903, 3782,
1314, 290, 43, 35,
0, 0, 0, 0,
10, 33, 55, 70,
76, 74, 71, 70,
69, 71, 70, 69,
70, 66, 67, 66,
66, 64, 63, 61,
66, 73, 85, 95,
106, 116, 129, 140,
147, 159, 180, 213,
257, 297, 342, 388,
438, 479, 501, 504,
474, 436, 385, 336,
299, 265, 237, 216,
212, 192, 201, 200,
205, 206, 207, 218,
220, 224, 228, 230,
219, 236, 247, 238,
240, 246, 274, 299,
324, 366, 414, 495,
578, 697, 880, 1132,
1556, 2134, 2919, 3921,
5207, 7012, 9151, 11551,
14179, 16623, 18634, 20055,
20592, 20070, 18530, 16331,
13514, 10589, 7760, 5319,
3781, 2552, 1583, 974,
655, 443, 344, 315,
334, 325, 350, 375,
304, 312, 317, 321,
307, 312, 395, 402,
474, 487, 611, 690,
755, 903, 1049, 1106,
1178, 1189, 1185, 1061,
1099, 970, 841, 750,
639, 569, 497, 442,
390, 371, 300, 352,
296, 309, 312, 376,
319, 413, 301, 365,
324, 339, 335, 370,
332, 352, 353, 370,
349, 355, 340, 346,
384, 385, 365, 359,
340, 415, 380, 377,
424, 375, 396, 419,
418, 437, 379, 425,
431, 400, 418, 411,
477, 449, 458, 468,
507, 470, 510, 484,
487, 487, 519, 511,
516, 534, 513, 537,
518, 534, 523, 561,
519, 502, 502, 484,
533, 537, 524, 574,
576, 555, 547, 602,
640, 659, 634, 650,
653, 694, 805, 930,
1003, 1300, 1614, 2013,
2677, 3418, 4264, 5293,
6561, 7692, 9043, 10313,
11474, 12331, 12722, 12646,
12071, 11582, 10618, 9616,
8267, 6987, 5826, 4874,
3834, 3011, 2300, 1777,
1346, 1058, 894, 767,
743, 549, 560, 564,
514, 533, 519, 498,
555, 476, 520, 552,
560, 614, 674, 746,
928, 1033, 1286, 1514,
1834, 2224, 2690, 3104,
3721, 4102, 4494, 4881,
4895, 5291, 5074, 4942,
4703, 4445, 3957, 3482,
2943, 2521, 2156, 1887,
1490, 1310, 1084, 929,
874, 755, 690, 636,
626, 551, 599, 552,
573, 506, 491, 492,
516, 532, 592, 588,
626, 717, 842, 983,
1265, 1617, 2152, 2835,
3602, 4631, 5876, 7460,
8932, 10750, 12644, 14579,
16221, 17398, 18583, 19038,
19580, 19132, 18432, 17380,
15623, 14082, 12280, 10714,
9092, 7377, 5918, 4906,
4046, 3225, 2666, 2096,
1805, 1567, 1350, 1279,
1240, 1064, 1030, 901,
857, 788, 677, 646,
588, 558, 484, 433,
405, 397, 376, 373,
384, 346, 320, 349,
327, 342, 330, 348,
339, 350, 331, 339,
315, 325, 319, 286,
347, 312, 304, 312,
336, 322, 341, 331,
352, 278, 343, 316,
295, 350, 333, 292,
320, 343, 341, 321,
325, 319, 334, 323,
318, 319, 335, 339,
312, 320, 298, 329,
294, 297, 324, 303,
312, 302, 321, 288,
334, 328, 306, 330,
333, 295, 300, 313,
318, 324, 321, 284,
291, 276, 340, 345,
331, 310, 314, 308,
337, 326, 274, 272,
303, 308, 314, 320,
306, 302, 304, 301,
333, 305, 311, 293,
289, 294, 321, 285,
255, 284, 319, 299,
300, 292, 288, 293,
311, 311, 335, 296,
305, 291, 311, 272,
255, 304, 293, 308,
320, 289, 268, 293,
260, 246, 301, 300,
287, 292, 277, 280,
295, 273, 274, 300,
296, 302, 295, 318,
264, 305, 268, 297,
272, 269, 256, 255,
250, 261, 273, 266,
265, 276, 282, 267,
257, 269, 284, 291,
256, 292, 293, 275,
289, 286, 285, 275,
246, 266, 283, 258,
295, 248, 288, 250,
265, 276, 252, 263,
235, 266, 278, 258,
263, 299, 245, 290,
272, 270, 254, 245,
258, 255, 254, 266,
263, 239, 245, 283,
257, 257, 262, 248,
271, 252, 251, 245,
258, 265, 267, 250,
277, 241, 249, 259,
288, 245, 275, 203,
253, 253, 254, 233,
246, 249, 244, 241,
261, 255, 245, 259,
235, 242, 257, 256,
205, 231, 249, 233,
234, 233, 230, 238,
257, 244, 218, 254,
267, 254, 237, 220,
227, 254, 229, 228,
207, 244, 234, 234,
229, 247, 223, 223,
231, 247, 208, 232,
222, 233, 218, 235,
260, 243, 231, 222,
225, 217, 207, 214,
238, 227, 218, 225,
258, 247, 230, 218,
201, 240, 240, 211,
236, 210, 231, 240,
227, 193, 244, 223,
200, 214, 208, 217,
231, 171, 196, 227,
199, 203, 235, 219,
223, 234, 223, 196,
219, 222, 209, 233,
239, 210, 235, 221,
225, 238, 240, 237,
237, 258, 227, 274,
294, 268, 297, 321,
396, 442, 459, 523,
582, 798, 845, 1028,
1280, 1345, 1635, 1879,
2256, 2652, 2787, 3107,
3388, 3666, 3806, 4091,
4242, 4303, 4364, 4370,
4207, 4163, 4068, 3832,
3458, 3228, 2992, 2719,
2460, 2181, 1903, 1643,
1388, 1193, 1009, 864,
715, 591, 506, 441,
348, 333, 290, 271,
259, 210, 213, 224,
220, 212, 223, 191,
181, 228, 214, 193,
199, 201, 212, 214,
207, 217, 237, 194,
227, 250, 305, 296,
338, 307, 354, 385,
462, 472, 478, 510,
569, 550, 617, 680,
650, 634, 655, 653,
684, 688, 667, 625,
571, 544, 570, 502,
500, 455, 384, 411,
337, 343, 301, 248,
216, 231, 214, 207,
212, 187, 186, 190,
174, 162, 157, 162,
158, 152, 157, 173,
150, 155, 149, 166,
152, 160, 158, 164,
152, 145, 172, 141,
158, 155, 151, 160,
146, 139, 150, 146,
127, 147, 155, 138,
141, 153, 171, 161,
140, 135, 144, 140,
139, 148, 146, 144,
159, 146, 148, 137,
126, 133, 135, 155,
138, 154, 132, 131,
150, 131, 139, 171,
143, 145, 148, 149,
138, 128, 159, 135,
134, 154, 145, 136,
149, 147, 132, 131,
154, 151, 124, 145,
160, 127, 153, 129,
155, 123, 141, 137,
120, 151, 156, 153,
128, 120, 140, 127,
119, 119, 142, 143,
138, 148, 131, 122,
118, 106, 146, 143,
160, 130, 132, 140,
131, 134, 114, 126,
121, 135, 108, 108,
134, 123, 121, 133,
130, 118, 131, 141,
123, 135, 120, 109,
118, 125, 132, 113,
121, 142, 121, 133,
137, 117, 107, 118,
128, 124, 148, 125,
145, 114, 134, 118,
116, 109, 121, 127,
115, 140, 117, 105,
125, 141, 101, 146,
119, 115, 112, 128,
141, 123, 140, 132,
104, 116, 129, 101,
118, 123, 150, 103,
111, 117, 119, 148,
142, 125, 112, 130,
120, 101, 121, 97,
109, 129, 105, 117,
97, 119, 127, 99,
110, 117, 135, 114,
114, 138, 126, 118,
122, 110, 112, 126,
97, 116, 100, 130,
97, 92, 107, 103,
113, 115, 94, 106,
102, 117, 114, 138,
92, 107, 117, 93,
117, 100, 91, 108,
99, 103, 105, 114,
99, 96, 111, 112,
124, 103, 115, 115,
98, 94, 95, 107,
114, 111, 106, 102,
106, 110, 119, 95,
112, 100, 112, 98,
85, 101, 92, 99,
97, 131, 98, 106,
100, 90, 115, 92,
102, 100, 98, 96,
109, 95, 116, 100,
82, 102, 85, 80,
108, 103, 111, 99,
82, 109, 83, 91,
86, 100, 102, 99,
107, 107, 96, 97,
94, 85, 96, 102,
111, 122, 84, 101,
99, 92, 88, 90,
86, 89, 84, 84,
86, 108, 93, 95,
71, 110, 96, 71,
91, 102, 104, 98,
98, 82, 81, 105,
89, 110, 90, 108,
87, 97, 79, 100,
107, 94, 90, 96,
111, 103, 107, 92,
105, 94, 98, 90,
90, 81, 88, 103,
86, 85, 81, 102,
88, 107, 96, 85,
77, 88, 89, 98,
95, 79, 85, 83,
92, 91, 74, 97,
82, 91, 84, 100,
79, 82, 82, 82,
82, 75, 78, 97,
78, 90, 102, 84,
79, 64, 80, 82,
84, 90, 85, 99,
102, 95, 81, 81,
85, 83, 83, 90,
78, 70, 88, 95,
97, 79, 86, 87,
99, 103, 110, 116,
110, 135, 140, 182,
156, 196, 215, 224,
262, 254, 291, 362,
397, 438, 502, 550,
554, 622, 620, 649,
747, 792, 807, 827,
871, 881, 850, 919,
853, 831, 855, 793,
852, 795, 694, 713,
674, 626, 554, 510,
456, 448, 376, 367,
314, 306, 278, 233,
215, 208, 151, 165,
141, 130, 115, 106,
124, 118, 88, 85,
93, 80, 69, 83,
75, 86, 73, 67,
84, 70, 73, 64,
77, 77, 74, 71,
101, 74, 81, 74,
88, 68, 69, 66,
77, 72, 66, 76,
64, 74, 62, 67,
85, 65, 71, 70,
72, 58, 79, 74,
86, 78, 63, 80,
58, 78, 62, 79,
62, 78, 59, 66,
55, 67, 72, 72,
65, 72, 68, 84,
83, 57, 55, 66,
77, 75, 75, 66,
86, 72, 79, 77,
62, 86, 76, 80,
103, 101, 95, 97,
98, 106, 87, 94,
125, 131, 134, 112,
140, 129, 133, 150,
131, 175, 151, 158,
181, 162, 190, 148,
162, 182, 164, 141,
133, 160, 127, 145,
147, 129, 99, 132,
123, 99, 95, 104,
92, 92, 82, 82,
76, 74, 81, 76,
73, 71, 73, 78,
63, 63, 61, 57,
56, 68, 58, 59,
46, 59, 69, 56,
57, 50, 58, 64,
54, 49, 66, 47,
53, 65, 62, 58,
52, 67, 45, 65,
50, 58, 44, 59,
59, 67, 52, 57,
59, 42, 60, 53,
53, 60, 65, 59,
76, 53, 56, 58,
62, 63, 66, 36,
62, 68, 57, 53,
64, 45, 44, 55,
63, 56, 53, 53,
53, 54, 49, 50,
48, 60, 35, 47,
49, 60, 60, 58,
43, 53, 53, 63,
58, 49, 50, 41,
57, 61, 48, 50,
62, 41, 49, 57,
45, 58, 52, 58,
34, 55, 42, 53,
65, 51, 45, 55,
49, 57, 57, 55,
45, 63, 43, 49,
48, 42, 66, 54,
52, 65, 51, 50,
53, 39, 56, 47,
46, 42, 42, 41,
48, 52, 48, 48,
52, 54, 59, 50,
51, 41, 52, 48,
45, 50, 63, 41,
55, 38, 43, 42,
53, 44, 39, 52,
54, 36, 42, 51,
50, 41, 43, 62,
41, 48, 57, 40,
57, 49, 44, 45,
47, 47, 42, 53,
42, 52, 39, 53,
36, 39, 49, 48,
47, 29, 45, 29,
51, 33, 68, 52,
48, 48, 44, 37,
38, 57, 45, 41,
40, 48, 38, 40,
47, 41, 57, 46,
30, 46, 47, 35,
50, 45, 49, 46,
37, 49, 45, 36,
44, 45, 33, 36,
41, 51, 48, 57,
50, 42, 33, 53,
49, 42, 44, 37,
39, 30, 40, 39,
51, 50, 34, 39,
35, 42, 46, 41,
40, 47, 38, 45,
44, 44, 46, 44,
43, 39, 25, 34,
43, 43, 43, 29,
47, 37, 48, 45,
41, 39, 37, 29,
35, 46, 50, 27,
33, 48, 45, 46,
42, 48, 39, 35,
47, 30, 34, 30,
41, 27, 43, 42,
34, 35, 27, 35,
37, 38, 36, 44,
36, 34, 45, 38,
34, 41, 39, 30,
41, 39, 42, 33,
30, 48, 30, 45,
34, 41, 41, 39,
47, 43, 29, 38,
32, 29, 36, 48,
41, 35, 30, 34,
34, 38, 34, 27,
37, 42, 33, 33,
36, 34, 32, 36,
37, 46, 34, 32,
38, 32, 34, 40,
42, 34, 35, 30,
27, 36, 40, 36,
28, 28, 37, 36,
38, 27, 41, 23,
27, 36, 34, 27,
39, 48, 27, 42,
35, 34, 38, 34,
29, 37, 39, 34,
30, 31, 40, 34,
37, 28, 33, 30,
40, 30, 30, 31,
34, 40, 27, 29,
41, 23, 26, 31,
30, 26, 21, 35,
28, 29, 31, 32,
35, 30, 28, 43,
26, 35, 29, 35,
25, 20, 35, 29,
40, 45, 30, 38,
29, 21, 28, 30,
28, 32, 27, 47,
27, 31, 22, 23,
23, 33, 23, 30,
24, 33, 32, 33,
31, 25, 30, 30,
29, 33, 26, 33,
31, 27, 38, 34,
37, 22, 28, 24,
28, 38, 41, 31,
28, 25, 30, 35,
38, 30, 26, 31,
33, 34, 30, 36,
29, 34, 44, 36,
23, 24, 30, 23,
27, 27, 35, 28,
25, 30, 36, 25,
21, 21, 28, 37,
19, 25, 25, 31,
28, 30, 16, 26,
15, 28, 32, 26,
24, 20, 28, 42,
18, 35, 26, 36,
26, 26, 36, 22,
23, 21, 27, 21,
21, 23, 24, 22,
32, 26, 27, 27,
26, 29, 29, 18,
19, 24, 28, 31,
29, 25, 37, 21,
19, 20, 21, 22,
24, 25, 27, 24,
23, 22, 16, 32,
23, 23, 27, 21,
23, 17, 26, 26,
32, 24, 22, 24,
19, 22, 16, 25,
36, 30, 19, 16,
26, 24, 22, 16,
24, 20, 17, 22,
28, 27, 23, 28,
27, 24, 13, 18,
30, 28, 28, 21,
25, 17, 17, 26,
17, 19, 17, 22,
17, 24, 23, 17,
16, 18, 30, 27,
13, 21, 25, 27,
30, 23, 28, 24,
24, 28, 19, 23,
23, 16, 14, 27,
19, 21, 23, 15,
18, 22, 18, 20,
28, 17, 18, 24,
13, 23, 20, 28,
13, 29, 28, 21,
22, 22, 23, 21,
17, 18, 18, 15,
15, 24, 22, 23,
25, 21, 21, 21,
17, 20, 19, 18,
17, 21, 14, 25,
20, 22, 24, 19,
31, 26, 20, 25,
17, 16, 21, 15,
18, 18, 17, 25,
18, 18, 22, 19,
15, 20, 13, 9,
19, 19, 20, 22,
14, 14, 19, 27,
24, 18, 26, 18,
20, 23, 21, 18,
17, 14, 17, 19,
24, 17, 11, 27,
24, 16, 14, 12,
14, 19, 24, 19,
20, 12, 22, 19,
13, 23, 18, 15,
18, 18, 24, 22,
15, 19, 20, 16,
19, 19, 17, 22,
20, 19, 13, 25,
14, 12, 12, 15,
18, 16, 21, 17,
24, 7, 19, 13,
13, 22, 19, 15,
13, 9, 13, 12,
12, 13, 15, 19,
12, 12, 21, 19,
7, 19, 15, 20,
20, 10, 22, 15,
16, 15, 10, 13,
16, 19, 21, 27,
13, 15, 23, 15,
11, 19, 16, 15,
15, 14, 15, 14,
17, 11, 24, 21,
23, 15, 18, 13,
16, 11, 23, 13,
23, 14, 18, 16,
9, 13, 15, 11,
18, 18, 13, 12,
15, 15, 18, 8,
16, 13, 11, 12,
13, 15, 15, 13,
15, 9, 21, 14,
10, 23, 8, 12,
14, 9, 19, 12,
17, 13, 15, 16,
17, 10, 9, 12,
12, 16, 13, 17,
12, 14, 17, 10,
10, 9, 9, 12,
12, 10, 17, 17,
14, 17, 13, 10,
12, 20, 15, 9,
8, 15, 14, 13,
12, 21, 10, 11,
14, 11, 13, 14,
16, 11, 10, 15,
13, 6, 20, 11,
10, 12, 18, 15,
15, 10, 17, 12,
13, 18, 10, 13,
14, 10, 14, 18,
7, 8, 6, 8,
14, 9, 17, 9,
9, 10, 8, 11,
12, 11, 10, 5,
11, 10, 10, 10,
16, 9, 10, 10,
11, 7, 13, 13,
11, 12, 8, 9,
7, 11, 11, 12,
6, 11, 11, 5,
6, 9, 12, 12,
15, 17, 5, 7,
12, 16, 16, 15,
16, 7, 15, 12,
10, 10, 5, 3,
7, 11, 9, 12,
6, 8, 9, 6,
10, 1, 5, 6,
10, 5, 8, 12,
9, 15, 11, 9,
11, 8, 10, 10,
11, 8, 11, 9,
8, 7, 16, 5,
9, 12, 12, 8,
12, 11, 10, 6,
10, 7, 11, 11,
9, 7, 9, 6,
11, 10, 12, 5,
7, 8, 10, 8,
8, 10, 7, 12,
11, 12, 10, 9,
7, 10, 7, 7,
12, 12, 10, 5,
10, 1, 6, 10,
8, 10, 3, 7,
12, 4, 7, 10,
8, 10, 8, 10,
9, 7, 8, 6,
6, 11, 11, 7,
6, 6, 4, 10,
11, 2, 5, 9,
7, 5, 9, 4,
8, 8, 2, 10,
6, 6, 4, 3,
6, 4, 3, 5,
12, 11, 9, 7,
6, 6, 7, 7,
9, 6, 6, 6,
6, 9, 8, 12,
9, 9, 4, 6,
9, 10, 2, 1,
8, 4, 4, 6,
6, 9, 3, 10,
9, 5, 7, 7,
10, 6, 5, 8,
7, 8, 4, 4,
9, 4, 10, 7,
5, 4, 8, 5,
3, 3, 5, 5,
3, 10, 3, 6,
9, 4, 5, 4,
8, 2, 6, 5,
5, 4, 7, 1,
7, 6, 5, 3,
4, 7, 4, 3,
1, 2, 2, 9,
7, 5, 9, 5,
2, 4, 7, 7,
10, 10, 1, 3,
6, 5, 6, 4,
2, 5, 3, 4,
4, 6, 4, 6,
6, 4, 5, 4,
6, 3, 4, 6,
7, 3, 5, 4,
6, 5, 4, 6,
8, 5, 2, 3,
6, 8, 5, 4,
0, 1, 6, 7,
6, 2, 1, 3,
1, 4, 4, 5,
5, 3, 6, 3,
3, 2, 7, 3,
8, 3, 6, 6,
2, 8, 3, 2,
1, 8, 3, 5,
6, 2, 4, 3,
3, 5, 2, 1,
3, 3, 5, 4,
3, 5, 2, 3,
3, 2, 0, 6,
3, 5, 3, 7,
2, 3, 5, 4,
1, 2, 2, 3,
2, 2, 1, 2,
4, 2, 3, 3,
5, 1, 2, 3,
2, 3, 5, 5,
3, 2, 4, 4,
1, 2, 2, 4,
1, 0, 4, 3,
3, 2, 1, 3,
5, 4, 6, 7,
0, 7, 5, 1,
3, 2, 2, 3,
4, 5, 0, 1,
4, 1, 2, 2,
8, 4, 3, 4,
4, 3, 4, 3,
1, 3, 1, 1,
0, 0, 4, 2,
1, 2, 0, 0,
0, 3, 4, 1,
4, 1, 4, 3,
3, 2, 4, 2,
3, 1, 4, 1,
2, 1, 3, 3,
2, 0, 2, 2,
7, 3, 1, 1,
2, 2, 0, 3,
3, 4, 1, 5,
2, 3, 1, 0,
4, 0, 1, 2,
3, 3, 0, 5,
2, 2, 2, 0,
0, 2, 1, 5,
5, 2, 2, 3,
2, 0, 1, 1,
3, 2, 0, 2,
1, 1, 1, 1,
0, 2, 0, 0,
1, 1, 1, 3,
0, 3, 3, 2,
1, 1, 0, 1,
1, 2, 2, 0,
1, 0, 2, 1,
1, 1, 2, 3,
0, 4, 0, 0,
1, 0, 0, 2,
2, 0, 2, 1,
2, 0, 1, 1,
1, 2, 0, 0,
0, 0, 0, 0,
0, 1, 2, 0,
1, 0, 0, 0,
2, 2, 1, 0,
1, 2, 0, 1,
0, 2, 2, 0,
0, 3, 0, 0,
0, 0, 0, 1,
0, 0, 1, 1,
1, 1, 0, 0,
0, 0, 0, 0,
0, 1, 0, 1,
0, 0, 0, 0,
0, 0, 0, 0,
0, 0, 0, 0,
0, 0, 0, 0,
0, 0, 0, 0,
0, 0, 0, 0,
0, 0, 0, 1,
0, 0, 0, 0,
0, 0, 0, 0,
1, 0, 0, 0,
0, 0, 0, 0,
0, 0, 0, 0,
0, 0, 0, 0,
0, 0, 0, 0,
0, 0, 0, 0,
0, 0, 0, 0,
0, 0, 0, 0,
0, 0, 0, 0,
0, 0, 0, 0,
0, 0, 0, 0,
0, 0, 0, 0,
0, 0, 0, 0,
0, 0, 0, 0,
0, 0, 0, 0,
0, 0, 0, 0,
0, 0, 0, 0,
0, 0, 0, 0,
0, 0, 0, 0,
0, 0, 0, 0,
0, 0, 0, 0,
0, 0, 0, 0,
0, 0, 0, 0,
0, 0, 0, 0,
0, 0, 0, 0,
0, 0, 0, 0,
0, 0, 0, 0,
0, 0, 0, 0,
0, 0, 0, 0,
0, 0, 0, 0,
0, 0, 0, 0,
0, 0, 0, 0,
0, 0, 0, 0,
0, 0, 0, 0,
0, 0, 0, 0,
0, 0, 0, 1,
0, 0, 0, 0,
0, 0, 0, 0,
0, 0, 0, 0,
0, 0, 0, 0,
0, 0, 0, 0,
0, 0, 0, 0,
0, 0, 0, 0,
0, 0, 0, 0,
0, 0, 0, 0,
0, 0, 0, 0,
0, 0, 0, 0,
0, 0, 0, 0,
0, 0, 0, 0,
0, 0, 0, 0,
0, 0, 0, 0,
0, 0, 0, 0,
0, 0, 0, 0,
0, 0, 0, 0,
0, 0, 0, 0,
0, 0, 0, 0,
0, 0, 0, 0,
0, 0, 0, 0,
0, 0, 0, 0,
0, 0, 0, 0,
0, 0, 0, 0,
0, 0, 0, 0,
0, 0, 0, 0,
0, 0, 0, 0,
0, 0, 0, 0,
0, 0, 0, 0,
0, 0, 0, 0,
0, 0, 0, 0,
0, 0, 0, 0,
0, 0, 0, 0,
0, 0, 0, 0,
0, 0, 0, 0,
0, 0, 0, 0,
0, 0, 0, 0,
0, 0, 0, 0,
0, 0, 0, 0,
0, 0, 0, 0,
0, 0, 0, 0,
0, 0, 0, 0,
0, 0, 0, 0,
0, 0, 0, 0,
0, 0, 0, 0,
0, 0, 0, 0,
0, 0, 0, 0,
0, 0, 0, 0,
0, 0, 0, 0,
0, 0, 0, 0,
0, 0, 0, 0,
0, 0, 0, 0,
0, 0, 0, 0,
0, 0, 0, 0,
0, 0, 0, 1,
0, 0, 0, 0,
0, 0, 0, 0,
0, 0, 0, 0,
0, 0, 0, 0,
0, 0, 0, 0,
0, 0, 0, 0,
0, 0, 0, 0,
0, 0, 0, 0,
0, 0, 0, 0,
0, 0, 0, 0,
0, 0, 0, 0,
0, 0, 0, 0,
0, 0, 0, 0,
0, 0, 0, 0,
0, 0, 0, 0,
0, 0, 0, 0,
0, 0, 0, 0,
0, 0, 0, 0,
0, 0, 0, 0,
0, 0, 0, 0,
0, 0, 0, 0,
0, 0, 0, 0,
0, 0, 0, 0,
0, 0, 0, 0,
0, 0, 0, 0,
0, 0, 0, 0,
0, 0, 0, 0,
0, 0, 0, 0,
0, 0, 0, 0,
0, 0, 0, 0,
0, 0, 0, 0,
0, 0, 0, 0,
0, 0, 0, 0,
0, 0, 0, 0,
0, 0, 0, 0,
0, 0, 0, 0,
0, 0, 0, 0,
0, 0, 0, 0,
0, 0, 0, 0,
0, 0, 0, 0,
0, 0, 0, 0,
0, 0, 0, 0,
0, 0, 0, 0,
0, 0, 0, 0,
0, 0, 0, 0,
0, 0, 0, 0,
0, 0, 0, 0,
0, 0, 0, 0,
0, 0, 0, 0,
0, 0, 0, 0,
0, 0, 0, 0,
0, 0, 0, 0,
0, 0, 0, 0,
0, 0, 0, 0,
0, 0, 0, 0,
0, 0, 0, 0,
0, 0, 0, 0,
0, 0, 0, 0,
0, 0, 0, 0,
0, 0, 0, 0,
0, 0, 0, 0,
0, 0, 0, 0,
0, 0, 0, 0,
0, 0, 0, 0,
0, 0, 0, 0,
0, 0, 0, 0,
0, 0, 0, 0,
0, 0, 0, 0,
0, 0, 0, 0,
0, 0, 0, 0,
0, 0, 0, 0,
0, 0, 0, 0,
0, 0, 0, 0,
0, 0, 0, 0,
0, 0, 0, 0,
0, 0, 0, 0,
0, 0, 0, 0,
0, 0, 0, 0,
0, 0, 0, 0,
0, 0, 0, 0,
0, 0, 0, 0,
0, 0, 0, 0,
0, 0, 0, 0,
0, 0, 0, 0,
0, 0, 0, 0,
0, 0, 0, 0,
0, 0, 0, 0,
0, 0, 0, 0,
0, 0, 0, 0,
0, 0, 0, 0,
0, 0, 0, 0,
0, 0, 0, 0,
0, 0, 0, 0,
0, 0, 0, 0,
0, 0, 0, 0,
0, 0, 0, 0,
0, 0, 0, 0,
0, 0, 0, 0,
0, 0, 0, 0,
0, 0, 0, 0,
0, 0, 0, 0,
0, 0, 0, 0,
0, 0, 0, 0,
0, 0, 0, 0,
0, 0, 0, 0,
0, 0, 0, 0,
0, 0, 0, 0,
0, 0, 0, 0,
0, 0, 0, 0,
0, 0, 0, 0,
0, 0, 0, 0,
0, 0, 0, 0,
0, 0, 0, 0,
0, 0, 0, 0,
0, 0, 0, 0,
0, 0, 0, 0,
0, 0, 0, 0,
0, 0, 0, 0,
0, 0, 0, 0,
0, 0, 0, 0,
0, 0, 0, 0,
0, 0, 0, 0,
0, 0, 0, 0,
0, 0, 0, 0,
0, 0, 0, 0,
0, 0, 0, 0,
0, 0, 0, 0,
0, 0, 0, 0,
0, 0, 0, 0,
0, 0, 0, 0,
0, 0, 0, 0,
0, 0, 0, 0,
0, 0, 0, 0,
0, 0, 0, 0,
0, 0, 0, 0,
0, 0, 0, 0,
0, 0, 0, 0,
0, 0, 0, 0,
0, 0, 0, 0,
0, 0, 0, 0,
0, 0, 0, 0,
0, 0, 0, 0,
0, 0, 0, 0,
0, 0, 0, 0,
0, 0, 0, 0,
0, 0, 0, 0,
0, 0, 0, 0,
0, 0, 0, 0,
0, 0, 0, 0,
0, 0, 0, 0,
0, 0, 0, 0,
0, 0, 0, 0,
0, 0, 0, 0,
0, 0, 0, 0,
#ENDOFDATA   :