File: dtsa2/DemoSpectra/K411-K412/MgO std.msa
#FORMAT      : EMSA/MAS Spectral Data File
#VERSION     : 1.0
#TITLE       : Bruker AXS spectrum MgO
#DATE        : 29-JUL-2008
#TIME        : 10:12
#OWNER       : Bruker AXS
#NPOINTS     : 4096
#NCOLUMNS    : 4
#XUNITS      : eV
#YUNITS      : counts
#DATATYPE    : Y
#XPERCHAN    : 5.00409
#OFFSET      : -477.824
#BEAMKV      : 15
#SIGNALTYPE  : EDS
#ELEVANGLE   : 40
#AZIMANGLE   : 180
#LIVETIME    : 59.349
#REALTIME    : 63.851
#PROBECUR    : 2.5
#TAUWIND     : 0
#TDEADLYR    : 0.00001
#TACTLYR     : 0.045
#TALWIND     : 0.003
#CHOFFSET    : 0.0
#XLABEL      : Energy (eV)
#YLABEL      : Counts
#EDSDET      : SDDUTW
##D2STDCMP   : MgO,(O:39.6964),(Mg:60.3036),2.95
#SPECTRUM    :
0, 0, 0, 0,
0, 0, 0, 0,
0, 0, 0, 0,
0, 0, 0, 0,
0, 0, 0, 0,
0, 0, 0, 0,
0, 0, 0, 0,
0, 0, 0, 0,
0, 0, 0, 0,
0, 0, 0, 0,
0, 0, 0, 0,
0, 0, 0, 0,
0, 0, 0, 0,
0, 0, 0, 0,
0, 0, 0, 0,
0, 0, 0, 0,
0, 0, 0, 0,
0, 0, 0, 0,
0, 0, 0, 0,
0, 0, 0, 0,
0, 5, 12, 60,
185, 617, 1775, 4418,
9874, 20493, 37075, 61689,
90273, 118540, 139601, 148414,
142763, 122113, 94737, 66221,
42056, 24014, 12335, 5384,
1840, 376, 6, 0,
0, 0, 0, 0,
18, 48, 81, 102,
109, 108, 104, 98,
95, 89, 89, 82,
87, 83, 86, 79,
75, 73, 74, 78,
83, 87, 94, 98,
102, 106, 114, 132,
152, 177, 201, 232,
278, 329, 387, 446,
483, 518, 521, 515,
487, 450, 390, 328,
266, 230, 193, 191,
168, 163, 148, 150,
153, 163, 170, 194,
198, 222, 233, 246,
259, 264, 283, 295,
311, 337, 355, 380,
422, 483, 525, 643,
778, 901, 1164, 1547,
2112, 2822, 3791, 5134,
7005, 9401, 12210, 15552,
19209, 22615, 25461, 27442,
27924, 27406, 25267, 21934,
18507, 14909, 10990, 7544,
5283, 3344, 2193, 1244,
749, 474, 346, 298,
227, 213, 200, 194,
200, 190, 227, 225,
229, 213, 269, 268,
215, 250, 255, 280,
293, 256, 278, 284,
299, 282, 284, 312,
304, 268, 321, 301,
333, 367, 324, 309,
311, 331, 342, 333,
339, 364, 386, 375,
379, 419, 361, 439,
405, 426, 417, 402,
411, 400, 419, 381,
426, 421, 453, 475,
454, 445, 456, 503,
454, 493, 446, 470,
457, 505, 546, 502,
536, 517, 534, 514,
499, 560, 571, 571,
596, 601, 537, 576,
566, 563, 639, 632,
646, 652, 664, 690,
673, 647, 725, 694,
738, 743, 792, 817,
820, 796, 880, 879,
881, 945, 1052, 983,
1061, 1084, 1050, 1101,
1224, 1291, 1298, 1532,
1712, 1905, 2364, 3047,
3863, 5372, 7293, 10042,
13453, 17933, 24047, 30436,
37814, 46028, 53514, 60828,
67503, 71637, 74668, 75232,
73194, 69131, 63202, 56095,
48230, 40789, 33224, 26190,
20014, 14987, 11280, 8316,
5803, 4121, 2918, 1966,
1398, 1045, 794, 616,
513, 426, 401, 364,
321, 299, 296, 299,
286, 278, 302, 246,
269, 238, 228, 268,
276, 247, 257, 273,
280, 256, 251, 243,
258, 274, 237, 291,
255, 285, 284, 262,
268, 249, 238, 276,
269, 273, 282, 256,
249, 268, 256, 269,
248, 264, 254, 265,
276, 263, 263, 260,
256, 270, 256, 266,
285, 271, 295, 277,
266, 245, 299, 315,
264, 307, 301, 323,
290, 264, 297, 288,
310, 312, 289, 332,
343, 327, 367, 378,
300, 355, 326, 323,
367, 325, 328, 332,
301, 279, 284, 265,
263, 259, 270, 275,
269, 284, 262, 282,
273, 243, 276, 227,
279, 264, 253, 279,
264, 271, 307, 257,
281, 262, 273, 237,
240, 251, 257, 255,
257, 267, 242, 275,
275, 243, 260, 246,
292, 249, 273, 222,
278, 241, 275, 244,
247, 255, 260, 289,
248, 251, 263, 270,
247, 259, 303, 258,
251, 245, 278, 246,
273, 248, 279, 290,
244, 261, 260, 237,
258, 259, 288, 272,
265, 239, 283, 253,
268, 268, 262, 252,
229, 260, 251, 266,
266, 241, 245, 256,
256, 263, 256, 250,
249, 251, 264, 249,
273, 249, 250, 271,
249, 258, 245, 261,
243, 257, 251, 273,
263, 257, 230, 244,
259, 253, 261, 257,
229, 247, 246, 292,
243, 249, 288, 264,
275, 258, 282, 333,
279, 313, 289, 312,
284, 296, 293, 314,
284, 278, 278, 333,
295, 323, 267, 282,
264, 269, 278, 284,
236, 263, 223, 246,
234, 252, 270, 279,
244, 238, 230, 223,
240, 230, 254, 238,
258, 224, 235, 220,
218, 257, 209, 247,
237, 240, 254, 226,
244, 216, 257, 230,
216, 197, 238, 213,
213, 204, 223, 226,
213, 213, 230, 212,
228, 216, 234, 219,
215, 221, 193, 246,
214, 214, 246, 194,
225, 250, 208, 232,
164, 219, 222, 242,
199, 210, 223, 204,
197, 217, 214, 197,
184, 220, 194, 180,
236, 221, 219, 196,
196, 209, 199, 222,
190, 241, 214, 198,
215, 182, 211, 225,
204, 189, 223, 218,
234, 189, 190, 190,
234, 179, 190, 197,
174, 220, 197, 208,
209, 194, 185, 180,
172, 190, 202, 179,
192, 213, 206, 181,
216, 205, 166, 166,
189, 189, 183, 191,
209, 204, 195, 186,
187, 210, 202, 204,
191, 186, 202, 195,
199, 179, 200, 176,
192, 189, 156, 167,
164, 179, 174, 175,
187, 178, 180, 182,
200, 194, 192, 202,
213, 144, 180, 200,
191, 170, 199, 173,
166, 183, 179, 167,
216, 167, 183, 162,
182, 182, 190, 191,
171, 155, 169, 152,
164, 184, 189, 179,
161, 166, 186, 183,
181, 165, 182, 154,
180, 175, 173, 197,
164, 185, 183, 180,
158, 182, 168, 169,
161, 184, 171, 172,
166, 170, 163, 168,
166, 171, 170, 162,
183, 159, 168, 183,
178, 171, 190, 169,
175, 168, 162, 184,
157, 183, 164, 174,
149, 189, 159, 157,
139, 185, 149, 161,
144, 171, 163, 147,
171, 151, 165, 141,
156, 154, 161, 156,
128, 137, 163, 145,
146, 159, 159, 156,
159, 151, 141, 135,
136, 137, 145, 133,
129, 135, 150, 153,
137, 153, 131, 124,
149, 162, 152, 151,
128, 167, 153, 137,
132, 147, 144, 155,
160, 166, 147, 145,
123, 115, 149, 156,
164, 145, 138, 128,
159, 163, 136, 117,
136, 113, 142, 138,
143, 131, 154, 153,
140, 142, 145, 146,
142, 139, 156, 134,
130, 134, 133, 148,
123, 155, 142, 122,
123, 138, 133, 134,
133, 155, 136, 112,
116, 143, 145, 136,
146, 125, 141, 116,
120, 132, 146, 139,
121, 139, 122, 130,
106, 125, 119, 140,
116, 120, 138, 126,
109, 106, 108, 133,
127, 127, 135, 122,
150, 106, 125, 126,
118, 140, 93, 95,
125, 123, 109, 127,
130, 128, 98, 115,
121, 133, 96, 115,
126, 115, 127, 128,
117, 101, 110, 121,
115, 135, 115, 114,
131, 115, 102, 112,
111, 115, 116, 117,
104, 133, 115, 96,
119, 108, 117, 137,
114, 117, 91, 111,
111, 117, 116, 107,
98, 121, 101, 97,
116, 132, 111, 115,
114, 113, 104, 112,
114, 101, 114, 107,
114, 93, 111, 115,
109, 107, 121, 99,
111, 104, 117, 117,
115, 113, 114, 103,
128, 92, 112, 126,
109, 110, 105, 101,
109, 119, 85, 100,
99, 116, 111, 115,
117, 106, 92, 89,
89, 96, 121, 109,
106, 111, 100, 105,
103, 91, 90, 95,
86, 97, 78, 101,
98, 96, 117, 97,
104, 111, 100, 107,
77, 88, 95, 96,
81, 97, 107, 88,
89, 98, 79, 126,
92, 101, 95, 105,
87, 87, 87, 100,
92, 100, 119, 104,
92, 107, 85, 100,
96, 92, 99, 71,
103, 80, 86, 90,
81, 86, 88, 100,
102, 98, 103, 109,
79, 85, 112, 87,
93, 96, 83, 90,
90, 86, 86, 82,
88, 89, 96, 95,
91, 93, 90, 77,
88, 76, 85, 103,
119, 91, 70, 86,
88, 94, 76, 95,
100, 88, 72, 92,
83, 94, 88, 81,
73, 75, 79, 94,
70, 93, 77, 83,
81, 84, 77, 98,
82, 87, 80, 93,
79, 78, 61, 70,
67, 95, 75, 95,
87, 77, 89, 76,
83, 95, 85, 75,
76, 82, 87, 81,
66, 84, 71, 76,
81, 80, 66, 77,
89, 83, 75, 70,
84, 78, 80, 95,
74, 61, 70, 81,
95, 70, 77, 62,
82, 77, 86, 78,
77, 72, 71, 81,
86, 82, 92, 69,
74, 77, 79, 74,
71, 74, 75, 69,
76, 72, 84, 73,
68, 67, 76, 61,
67, 66, 85, 86,
80, 67, 70, 87,
57, 73, 88, 50,
81, 82, 83, 71,
64, 55, 91, 103,
62, 70, 76, 71,
65, 66, 61, 78,
68, 73, 82, 62,
56, 68, 64, 72,
68, 59, 78, 72,
82, 70, 54, 67,
49, 70, 76, 74,
77, 74, 70, 71,
81, 85, 77, 69,
67, 69, 70, 58,
69, 43, 69, 67,
58, 75, 76, 69,
77, 65, 67, 63,
74, 85, 67, 66,
70, 68, 67, 83,
61, 82, 67, 55,
83, 64, 84, 78,
76, 71, 68, 80,
50, 60, 74, 61,
61, 58, 59, 67,
74, 54, 56, 61,
60, 58, 62, 57,
59, 61, 71, 64,
70, 61, 53, 60,
72, 55, 73, 56,
53, 81, 49, 62,
65, 48, 55, 56,
60, 52, 69, 58,
58, 72, 71, 57,
48, 53, 50, 59,
70, 65, 83, 70,
60, 51, 52, 58,
50, 60, 49, 57,
57, 53, 57, 53,
54, 46, 45, 56,
58, 53, 62, 48,
58, 59, 53, 52,
50, 51, 51, 46,
54, 60, 60, 46,
47, 49, 57, 62,
64, 55, 63, 66,
66, 59, 62, 43,
56, 63, 45, 54,
48, 59, 65, 54,
45, 46, 54, 57,
53, 56, 45, 58,
43, 41, 47, 63,
50, 46, 51, 51,
66, 52, 50, 58,
50, 52, 42, 43,
55, 53, 53, 66,
66, 50, 45, 52,
56, 57, 70, 38,
44, 49, 57, 35,
55, 48, 46, 45,
39, 51, 53, 47,
68, 60, 43, 61,
57, 52, 62, 49,
63, 43, 49, 67,
47, 49, 46, 52,
45, 57, 49, 55,
54, 42, 60, 41,
51, 39, 46, 46,
47, 42, 59, 55,
46, 49, 46, 46,
49, 46, 57, 64,
45, 44, 45, 50,
45, 45, 43, 59,
34, 43, 39, 48,
41, 46, 43, 50,
48, 39, 54, 56,
41, 36, 46, 44,
48, 37, 31, 57,
38, 40, 48, 53,
36, 48, 36, 40,
45, 44, 46, 46,
48, 44, 43, 44,
51, 41, 49, 43,
46, 42, 50, 39,
45, 44, 39, 48,
35, 52, 38, 41,
44, 34, 47, 55,
40, 35, 39, 35,
38, 34, 51, 39,
34, 44, 48, 37,
47, 35, 33, 43,
47, 37, 30, 41,
47, 50, 31, 35,
38, 40, 40, 38,
32, 39, 40, 55,
48, 45, 19, 44,
52, 48, 35, 42,
42, 31, 46, 39,
26, 43, 42, 40,
43, 36, 41, 41,
43, 52, 44, 33,
45, 34, 42, 44,
36, 31, 32, 36,
39, 34, 47, 37,
38, 48, 37, 48,
40, 39, 29, 35,
38, 27, 37, 43,
34, 47, 48, 41,
28, 48, 32, 36,
50, 41, 21, 35,
40, 40, 38, 36,
38, 36, 36, 37,
34, 39, 24, 39,
36, 35, 35, 38,
36, 29, 40, 45,
37, 42, 37, 34,
33, 41, 36, 33,
24, 33, 27, 27,
55, 32, 28, 41,
38, 32, 24, 30,
32, 36, 28, 39,
30, 41, 23, 29,
30, 33, 38, 32,
32, 38, 29, 27,
33, 33, 41, 33,
25, 27, 39, 39,
45, 25, 35, 37,
37, 22, 30, 29,
24, 32, 32, 37,
31, 33, 25, 38,
39, 26, 31, 23,
33, 27, 28, 24,
28, 32, 25, 29,
35, 29, 27, 30,
32, 32, 32, 31,
25, 40, 26, 25,
33, 34, 24, 35,
28, 29, 35, 30,
30, 24, 38, 36,
37, 31, 34, 32,
39, 28, 41, 32,
33, 21, 34, 33,
27, 37, 25, 34,
30, 34, 39, 32,
36, 30, 33, 25,
39, 23, 14, 24,
24, 32, 24, 20,
29, 28, 30, 30,
37, 25, 33, 30,
20, 21, 35, 23,
25, 37, 29, 25,
32, 28, 25, 25,
29, 25, 33, 33,
23, 27, 31, 35,
24, 28, 27, 25,
25, 27, 32, 27,
30, 36, 32, 34,
17, 17, 38, 27,
33, 38, 29, 30,
24, 27, 24, 29,
27, 21, 23, 22,
28, 32, 24, 29,
23, 30, 32, 39,
22, 19, 18, 20,
23, 35, 25, 16,
26, 27, 18, 17,
28, 26, 31, 26,
22, 12, 36, 29,
25, 28, 30, 21,
27, 16, 24, 30,
19, 27, 28, 18,
22, 35, 26, 24,
23, 24, 22, 26,
27, 24, 36, 26,
31, 17, 31, 24,
23, 17, 24, 26,
22, 27, 27, 26,
19, 19, 20, 24,
21, 17, 29, 21,
23, 28, 26, 17,
33, 25, 21, 16,
19, 27, 27, 26,
20, 30, 24, 22,
19, 26, 18, 29,
23, 23, 11, 11,
20, 26, 15, 15,
19, 23, 22, 22,
21, 18, 25, 24,
28, 21, 22, 18,
21, 25, 15, 32,
18, 18, 17, 22,
25, 21, 24, 19,
25, 15, 18, 17,
22, 25, 11, 19,
20, 27, 29, 21,
12, 23, 21, 21,
26, 24, 16, 20,
21, 25, 26, 12,
18, 17, 21, 20,
24, 17, 24, 25,
30, 22, 19, 23,
23, 19, 15, 24,
25, 17, 18, 18,
18, 20, 7, 20,
29, 19, 22, 15,
12, 22, 24, 23,
13, 21, 15, 16,
20, 21, 19, 19,
27, 22, 20, 26,
20, 14, 16, 13,
24, 18, 16, 17,
14, 10, 19, 16,
18, 25, 11, 17,
16, 16, 12, 19,
19, 24, 17, 9,
14, 20, 16, 17,
16, 11, 15, 16,
9, 21, 14, 9,
20, 22, 15, 13,
12, 21, 19, 18,
16, 16, 18, 19,
25, 3, 14, 14,
15, 18, 17, 16,
25, 13, 22, 18,
20, 21, 18, 24,
13, 12, 11, 21,
19, 10, 23, 17,
15, 19, 16, 17,
17, 17, 18, 19,
11, 23, 10, 15,
15, 20, 12, 17,
18, 18, 11, 13,
20, 11, 17, 17,
14, 21, 12, 12,
17, 8, 16, 20,
15, 18, 11, 17,
15, 21, 11, 9,
21, 14, 17, 14,
19, 17, 11, 10,
13, 11, 9, 16,
14, 13, 13, 16,
15, 13, 15, 15,
14, 17, 14, 9,
25, 14, 11, 13,
19, 14, 13, 17,
12, 19, 21, 14,
15, 8, 14, 19,
11, 6, 11, 15,
9, 13, 15, 15,
15, 12, 15, 15,
8, 13, 6, 14,
9, 8, 15, 10,
13, 14, 14, 4,
9, 12, 11, 17,
10, 10, 18, 14,
19, 16, 16, 11,
16, 17, 11, 14,
11, 11, 8, 13,
12, 9, 10, 10,
16, 11, 16, 15,
6, 7, 6, 7,
7, 13, 10, 11,
8, 10, 18, 14,
14, 12, 14, 14,
13, 12, 11, 11,
11, 12, 8, 11,
12, 18, 10, 13,
7, 10, 12, 14,
12, 15, 14, 13,
14, 9, 17, 19,
11, 13, 5, 8,
11, 12, 10, 10,
13, 10, 9, 11,
7, 9, 5, 8,
9, 10, 11, 12,
8, 14, 15, 10,
12, 17, 12, 10,
10, 14, 7, 15,
12, 15, 17, 10,
14, 8, 13, 11,
6, 12, 8, 7,
13, 8, 13, 11,
8, 15, 10, 12,
13, 16, 12, 8,
11, 5, 16, 13,
9, 8, 16, 7,
5, 14, 8, 10,
10, 7, 7, 6,
8, 10, 12, 4,
5, 14, 8, 7,
8, 10, 10, 5,
6, 3, 8, 9,
8, 10, 7, 10,
6, 8, 11, 9,
10, 10, 8, 15,
7, 8, 13, 5,
11, 12, 10, 12,
8, 5, 10, 11,
6, 5, 8, 7,
13, 5, 8, 7,
13, 11, 9, 9,
5, 10, 9, 7,
4, 5, 13, 4,
13, 10, 11, 11,
4, 7, 6, 6,
10, 11, 3, 6,
7, 0, 5, 5,
13, 8, 7, 8,
5, 9, 7, 4,
8, 4, 10, 11,
7, 12, 10, 4,
4, 7, 8, 11,
11, 5, 7, 7,
5, 7, 10, 7,
5, 7, 3, 10,
8, 6, 7, 5,
6, 5, 10, 7,
7, 2, 6, 8,
7, 8, 5, 4,
3, 10, 5, 2,
6, 11, 13, 10,
6, 10, 11, 4,
4, 3, 12, 3,
8, 4, 5, 7,
1, 4, 7, 7,
4, 4, 3, 11,
12, 10, 9, 6,
6, 6, 7, 6,
12, 6, 8, 2,
7, 8, 8, 10,
4, 3, 5, 3,
4, 6, 5, 7,
9, 4, 5, 7,
6, 3, 4, 3,
4, 5, 7, 4,
6, 3, 6, 4,
8, 4, 8, 6,
6, 8, 4, 8,
5, 2, 9, 8,
4, 3, 5, 5,
7, 9, 7, 7,
4, 5, 4, 4,
4, 7, 9, 6,
4, 6, 7, 6,
4, 5, 5, 7,
5, 7, 3, 6,
7, 6, 7, 3,
4, 4, 3, 5,
4, 4, 4, 8,
5, 8, 3, 4,
6, 4, 6, 6,
2, 3, 6, 7,
5, 6, 6, 5,
4, 5, 2, 4,
3, 5, 2, 2,
6, 6, 4, 2,
2, 5, 1, 3,
5, 2, 5, 2,
3, 5, 3, 4,
2, 4, 4, 2,
1, 5, 2, 4,
2, 1, 3, 5,
7, 2, 4, 2,
3, 4, 4, 4,
2, 1, 5, 0,
4, 2, 1, 4,
5, 3, 5, 1,
2, 1, 5, 10,
3, 1, 4, 5,
1, 8, 1, 2,
5, 4, 4, 5,
2, 4, 1, 6,
2, 2, 2, 4,
3, 5, 3, 3,
2, 2, 6, 3,
1, 1, 0, 1,
6, 10, 4, 8,
1, 2, 3, 1,
5, 2, 3, 6,
0, 2, 2, 4,
4, 3, 0, 2,
3, 4, 4, 4,
2, 0, 2, 3,
2, 2, 3, 8,
1, 4, 3, 0,
2, 2, 3, 3,
1, 0, 3, 1,
2, 2, 7, 1,
1, 2, 1, 3,
1, 2, 2, 3,
4, 0, 2, 1,
1, 2, 7, 4,
1, 3, 4, 1,
2, 4, 2, 1,
0, 2, 3, 3,
1, 3, 2, 3,
1, 0, 4, 3,
1, 2, 0, 0,
3, 4, 0, 1,
5, 2, 0, 0,
3, 0, 0, 0,
1, 0, 5, 1,
3, 2, 3, 2,
3, 1, 3, 1,
1, 1, 1, 1,
1, 3, 3, 2,
1, 3, 1, 2,
0, 3, 0, 0,
2, 1, 1, 4,
1, 1, 1, 2,
1, 2, 2, 0,
1, 2, 1, 1,
2, 1, 0, 2,
3, 1, 1, 0,
2, 2, 0, 1,
2, 0, 4, 1,
1, 1, 1, 3,
0, 1, 3, 3,
0, 0, 1, 3,
0, 0, 0, 1,
2, 2, 2, 1,
3, 2, 2, 0,
1, 0, 1, 3,
0, 1, 1, 0,
1, 0, 2, 0,
1, 0, 0, 0,
2, 1, 1, 1,
0, 0, 1, 0,
1, 0, 0, 1,
0, 1, 1, 1,
1, 0, 0, 1,
0, 1, 3, 1,
1, 0, 0, 1,
0, 1, 1, 0,
0, 1, 1, 1,
0, 0, 0, 0,
1, 1, 0, 0,
2, 0, 0, 2,
1, 0, 0, 0,
1, 0, 0, 1,
0, 0, 0, 0,
0, 0, 0, 0,
1, 1, 0, 0,
0, 0, 1, 1,
0, 1, 0, 0,
1, 1, 0, 0,
0, 2, 1, 0,
1, 1, 0, 0,
1, 0, 0, 0,
1, 0, 1, 0,
0, 0, 1, 0,
0, 0, 0, 1,
0, 0, 0, 2,
1, 0, 0, 0,
0, 0, 0, 0,
0, 0, 0, 0,
0, 0, 0, 0,
0, 0, 0, 1,
0, 0, 0, 0,
0, 0, 0, 1,
1, 0, 0, 0,
0, 0, 0, 0,
0, 0, 0, 0,
0, 0, 0, 0,
0, 0, 0, 0,
0, 0, 0, 0,
0, 0, 0, 0,
0, 0, 0, 0,
0, 0, 0, 0,
0, 0, 0, 0,
0, 0, 0, 0,
0, 0, 0, 0,
0, 0, 0, 0,
0, 0, 0, 0,
0, 0, 0, 0,
0, 0, 0, 0,
0, 0, 0, 0,
0, 0, 0, 0,
0, 0, 0, 0,
0, 0, 0, 0,
0, 0, 0, 0,
0, 0, 0, 0,
0, 0, 0, 0,
0, 0, 0, 0,
0, 0, 0, 0,
0, 0, 0, 0,
0, 0, 0, 0,
0, 0, 0, 0,
0, 0, 0, 0,
0, 0, 0, 0,
0, 0, 0, 0,
0, 0, 0, 0,
0, 0, 0, 0,
0, 0, 0, 0,
0, 0, 0, 0,
0, 0, 0, 0,
0, 0, 0, 0,
0, 0, 0, 0,
0, 0, 0, 0,
0, 0, 0, 0,
0, 0, 0, 0,
0, 0, 0, 0,
0, 0, 0, 0,
0, 0, 0, 0,
0, 0, 0, 0,
0, 0, 0, 0,
0, 0, 0, 0,
0, 0, 0, 0,
0, 0, 0, 0,
0, 0, 0, 0,
0, 0, 0, 0,
0, 0, 0, 0,
0, 0, 0, 0,
0, 0, 0, 0,
0, 0, 0, 0,
0, 0, 0, 0,
0, 0, 0, 0,
0, 0, 0, 0,
0, 0, 0, 0,
0, 0, 0, 0,
0, 0, 0, 0,
0, 0, 0, 0,
0, 0, 0, 0,
0, 0, 0, 0,
0, 0, 0, 0,
0, 0, 0, 0,
0, 0, 0, 0,
0, 0, 0, 0,
0, 0, 0, 0,
0, 0, 0, 0,
0, 0, 0, 0,
0, 0, 0, 0,
0, 0, 0, 0,
0, 0, 0, 0,
0, 0, 0, 0,
0, 0, 0, 0,
0, 0, 0, 0,
0, 0, 0, 0,
0, 0, 0, 0,
0, 0, 0, 0,
0, 0, 0, 0,
0, 0, 0, 0,
0, 0, 0, 0,
0, 0, 0, 0,
0, 0, 0, 0,
0, 0, 0, 0,
0, 0, 0, 0,
0, 0, 0, 0,
0, 0, 0, 0,
0, 0, 0, 1,
0, 0, 0, 0,
0, 0, 0, 0,
0, 0, 0, 0,
0, 0, 0, 0,
0, 0, 0, 0,
0, 0, 0, 0,
0, 0, 0, 0,
0, 0, 0, 0,
0, 0, 0, 0,
0, 0, 0, 0,
0, 0, 0, 0,
0, 0, 0, 0,
0, 0, 0, 0,
0, 0, 0, 0,
0, 0, 0, 0,
0, 0, 0, 0,
0, 0, 0, 0,
0, 0, 0, 0,
0, 0, 0, 0,
0, 0, 0, 0,
0, 0, 0, 0,
0, 0, 0, 0,
0, 0, 0, 0,
0, 0, 0, 0,
0, 0, 0, 0,
0, 0, 0, 0,
0, 0, 0, 0,
0, 0, 0, 0,
0, 0, 0, 0,
0, 0, 0, 0,
0, 0, 0, 0,
0, 0, 0, 0,
0, 0, 0, 0,
0, 0, 0, 0,
0, 0, 0, 0,
0, 0, 0, 0,
0, 0, 0, 0,
0, 0, 0, 0,
0, 0, 0, 0,
0, 0, 0, 0,
0, 0, 0, 0,
0, 0, 0, 0,
0, 0, 0, 0,
0, 0, 0, 0,
0, 0, 0, 0,
0, 0, 0, 0,
0, 0, 0, 0,
0, 0, 0, 0,
0, 0, 0, 0,
0, 0, 0, 0,
0, 0, 0, 0,
0, 0, 0, 0,
0, 0, 0, 0,
0, 0, 0, 0,
0, 0, 0, 0,
0, 0, 0, 0,
0, 0, 0, 0,
0, 0, 0, 0,
0, 0, 0, 0,
0, 0, 0, 0,
0, 0, 0, 0,
0, 0, 0, 0,
0, 0, 0, 0,
0, 0, 0, 0,
0, 0, 0, 0,
0, 0, 0, 0,
0, 0, 0, 0,
0, 0, 0, 0,
0, 0, 0, 0,
0, 0, 0, 0,
0, 0, 0, 0,
0, 0, 0, 0,
0, 0, 0, 0,
0, 0, 0, 0,
0, 0, 0, 0,
0, 0, 0, 0,
0, 0, 0, 0,
0, 0, 0, 0,
0, 0, 0, 0,
0, 0, 0, 0,
0, 0, 0, 0,
0, 0, 0, 0,
0, 0, 0, 0,
0, 0, 0, 0,
0, 0, 0, 0,
0, 0, 0, 0,
0, 0, 0, 0,
0, 0, 0, 0,
0, 0, 0, 0,
0, 0, 0, 0,
0, 0, 0, 0,
0, 0, 0, 0,
0, 0, 0, 0,
0, 0, 0, 0,
0, 0, 0, 0,
0, 0, 0, 0,
0, 0, 0, 0,
0, 0, 0, 0,
0, 0, 0, 0,
0, 0, 0, 0,
0, 0, 0, 0,
0, 0, 0, 0,
0, 0, 0, 0,
0, 0, 0, 0,
0, 0, 0, 0,
0, 0, 0, 0,
0, 0, 0, 0,
0, 0, 0, 0,
0, 0, 0, 0,
0, 0, 0, 0,
0, 0, 0, 0,
0, 0, 0, 0,
0, 0, 0, 0,
0, 0, 0, 0,
0, 0, 0, 0,
0, 0, 0, 0,
0, 0, 0, 0,
0, 0, 0, 0,
0, 0, 0, 0,
0, 0, 0, 0,
0, 0, 0, 0,
0, 0, 0, 0,
0, 0, 0, 0,
0, 0, 0, 0,
0, 0, 0, 0,
0, 0, 0, 0,
0, 0, 0, 0,
0, 0, 0, 0,
0, 0, 0, 0,
0, 0, 0, 0,
0, 0, 0, 0,
0, 0, 0, 0,
0, 0, 0, 0,
0, 0, 0, 0,
0, 0, 0, 0,
0, 0, 0, 0,
0, 0, 0, 0,
0, 0, 0, 0,
0, 0, 0, 0,
0, 0, 0, 0,
0, 0, 0, 0,
0, 0, 0, 0,
0, 0, 0, 0,
0, 0, 0, 0,
0, 0, 0, 0,
0, 0, 0, 0,
0, 0, 0, 0,
0, 0, 0, 0,
0, 0, 0, 0,
0, 0, 0, 0,
0, 0, 0, 0,
0, 0, 0, 0,
0, 0, 0, 0,
#ENDOFDATA   :