File: dtsa2/msa/Cu-15-Std.msa
#FORMAT      : EMSA/MAS Spectral Data File
#VERSION     : 1.0
#TITLE       : CuStd
#DATE        : 18-DEC-2013
#TIME        : 01:49
#OWNER       : Unknown
#NPOINTS     : 2048
#NCOLUMNS    : 1
#XUNITS      : eV
#YUNITS      : counts
#DATATYPE    : Y
#XPERCHAN    : 10
#OFFSET      : 0
#BEAMKV      : 15
#SIGNALTYPE  : EDS
#ELEVANGLE   : 35
#AZIMANGLE   : 225
#LIVETIME    : 100
#PROBECUR    : 1
#TAUWIND     : 0
#TDEADLYR    : 0.00001
#TACTLYR     : 0.5
#TALWIND     : 0.004
#CHOFFSET    : 0.0
#XLABEL      : Energy (eV)
#YLABEL      : Counts
#EDSDET      : SIUTW
##SPECIMEN   : CuStd
##D2STDCMP   : Pure Cu,(Cu:100.0)
##DET_HASH   : 8bd54cba-bdb1-2809-7cdf-aba568fbcc57
##CALIB_HASH : f5ad288f-0449-f7ce-773b-4fa4d7b7a089
#SPECTRUM    :
0,
0,
0,
0,
0,
0,
0,
2,
6,
14,
30,
43,
53,
74,
69,
46,
41,
34,
64,
57,
61,
81,
78,
111,
138,
153,
138,
88,
67,
62,
59,
71,
62,
95,
113,
115,
139,
211,
301,
498,
714,
740,
778,
1140,
2676,
5324,
7573,
6933,
4347,
1886,
669,
227,
118,
83,
83,
81,
62,
82,
84,
70,
76,
70,
94,
68,
102,
78,
79,
108,
105,
84,
107,
101,
100,
95,
119,
103,
116,
117,
118,
112,
127,
136,
131,
111,
135,
131,
138,
114,
137,
144,
151,
140,
119,
142,
129,
132,
131,
109,
117,
133,
134,
142,
150,
121,
130,
150,
142,
145,
115,
141,
129,
142,
148,
139,
141,
139,
118,
126,
141,
156,
158,
131,
135,
134,
135,
133,
143,
124,
132,
128,
138,
132,
146,
152,
147,
143,
132,
136,
123,
140,
109,
121,
141,
120,
131,
146,
123,
131,
123,
118,
121,
106,
123,
108,
117,
122,
149,
104,
128,
115,
133,
112,
108,
101,
101,
121,
128,
110,
110,
120,
108,
115,
111,
110,
99,
119,
96,
114,
109,
105,
103,
102,
120,
102,
120,
88,
123,
106,
97,
88,
106,
82,
98,
100,
90,
100,
94,
99,
88,
92,
101,
91,
78,
98,
104,
90,
101,
86,
75,
101,
87,
74,
86,
80,
65,
89,
81,
99,
73,
68,
68,
71,
85,
86,
52,
72,
70,
81,
90,
88,
80,
74,
89,
72,
83,
74,
73,
86,
96,
75,
90,
82,
75,
74,
66,
75,
69,
70,
68,
69,
70,
72,
67,
68,
71,
56,
71,
58,
59,
64,
65,
74,
65,
58,
69,
70,
54,
68,
60,
54,
72,
58,
73,
70,
54,
63,
67,
57,
56,
65,
66,
49,
61,
64,
68,
53,
59,
64,
61,
55,
60,
50,
45,
65,
45,
54,
56,
60,
47,
52,
43,
54,
70,
64,
59,
68,
43,
56,
46,
51,
43,
44,
52,
59,
65,
51,
45,
51,
53,
51,
48,
62,
45,
53,
46,
48,
48,
58,
57,
51,
58,
51,
46,
45,
41,
49,
53,
68,
29,
41,
44,
44,
43,
45,
33,
33,
42,
46,
55,
46,
55,
34,
35,
31,
35,
35,
45,
34,
32,
39,
39,
41,
36,
50,
32,
43,
34,
33,
45,
42,
32,
35,
29,
40,
47,
43,
28,
27,
34,
34,
40,
25,
41,
47,
34,
45,
22,
34,
27,
43,
41,
38,
41,
61,
83,
181,
258,
427,
631,
862,
1044,
1275,
1294,
1212,
1011,
807,
545,
396,
239,
149,
80,
44,
40,
33,
40,
41,
24,
43,
32,
28,
29,
39,
27,
36,
26,
41,
36,
40,
33,
22,
29,
28,
33,
24,
22,
27,
40,
49,
52,
57,
82,
93,
132,
161,
195,
189,
180,
156,
128,
87,
81,
64,
34,
32,
27,
26,
29,
25,
13,
13,
11,
20,
23,
12,
19,
24,
20,
25,
22,
19,
23,
15,
17,
22,
21,
19,
17,
27,
18,
21,
14,
19,
22,
20,
24,
23,
20,
15,
25,
16,
19,
18,
27,
26,
23,
20,
12,
16,
20,
23,
30,
18,
13,
12,
15,
23,
9,
17,
17,
18,
16,
14,
9,
20,
13,
17,
22,
11,
18,
18,
26,
18,
13,
14,
13,
14,
16,
18,
11,
17,
11,
12,
15,
17,
13,
16,
18,
16,
13,
12,
8,
14,
15,
17,
18,
16,
15,
15,
18,
15,
14,
17,
17,
11,
14,
12,
12,
8,
16,
12,
14,
11,
18,
16,
20,
9,
14,
12,
7,
8,
7,
11,
15,
14,
11,
11,
10,
11,
10,
12,
17,
13,
14,
10,
14,
11,
6,
10,
11,
19,
14,
12,
7,
12,
8,
12,
10,
14,
8,
5,
0,
0,
0,
0,
0,
0,
0,
0,
0,
0,
0,
0,
0,
0,
0,
0,
0,
0,
0,
0,
0,
0,
0,
0,
0,
0,
0,
0,
0,
0,
0,
0,
0,
0,
0,
0,
0,
0,
0,
0,
0,
0,
0,
0,
0,
0,
0,
0,
0,
0,
0,
0,
0,
0,
0,
0,
0,
0,
0,
0,
0,
0,
0,
0,
0,
0,
0,
0,
0,
0,
0,
0,
0,
0,
0,
0,
0,
0,
0,
0,
0,
0,
0,
0,
0,
0,
0,
0,
0,
0,
0,
0,
0,
0,
0,
0,
0,
0,
0,
0,
0,
0,
0,
0,
0,
0,
0,
0,
0,
0,
0,
0,
0,
0,
0,
0,
0,
0,
0,
0,
0,
0,
0,
0,
0,
0,
0,
0,
0,
0,
0,
0,
0,
0,
0,
0,
0,
0,
0,
0,
0,
0,
0,
0,
0,
0,
0,
0,
0,
0,
0,
0,
0,
0,
0,
0,
0,
0,
0,
0,
0,
0,
0,
0,
0,
0,
0,
0,
0,
0,
0,
0,
0,
0,
0,
0,
0,
0,
0,
0,
0,
0,
0,
0,
0,
0,
0,
0,
0,
0,
0,
0,
0,
0,
0,
0,
0,
0,
0,
0,
0,
0,
0,
0,
0,
0,
0,
0,
0,
0,
0,
0,
0,
0,
0,
0,
0,
0,
0,
0,
0,
0,
0,
0,
0,
0,
0,
0,
0,
0,
0,
0,
0,
0,
0,
0,
0,
0,
0,
0,
0,
0,
0,
0,
0,
0,
0,
0,
0,
0,
0,
0,
0,
0,
0,
0,
0,
0,
0,
0,
0,
0,
0,
0,
0,
0,
0,
0,
0,
0,
0,
0,
0,
0,
0,
0,
0,
0,
0,
0,
0,
0,
0,
0,
0,
0,
0,
0,
0,
0,
0,
0,
0,
0,
0,
0,
0,
0,
0,
0,
0,
0,
0,
0,
0,
0,
0,
0,
0,
0,
0,
0,
0,
0,
0,
0,
0,
0,
0,
0,
0,
0,
0,
0,
0,
0,
0,
0,
0,
0,
0,
0,
0,
0,
0,
0,
0,
0,
0,
0,
0,
0,
0,
0,
0,
0,
0,
0,
0,
0,
0,
0,
0,
0,
0,
0,
0,
0,
0,
0,
0,
0,
0,
0,
0,
0,
0,
0,
0,
0,
0,
0,
0,
0,
0,
0,
0,
0,
0,
0,
0,
0,
0,
0,
0,
0,
0,
0,
0,
0,
0,
0,
0,
0,
0,
0,
0,
0,
0,
0,
0,
0,
0,
0,
0,
0,
0,
0,
0,
0,
0,
0,
0,
0,
0,
0,
0,
0,
0,
0,
0,
0,
0,
0,
0,
#ENDOFDATA   :