File: dtsa2/msa/Cu-15-Unk.msa
#FORMAT      : EMSA/MAS Spectral Data File
#VERSION     : 1.0
#TITLE       : CuUnk
#DATE        : 18-DEC-2013
#TIME        : 02:03
#OWNER       : Unknown
#NPOINTS     : 2048
#NCOLUMNS    : 1
#XUNITS      : eV
#YUNITS      : counts
#DATATYPE    : Y
#XPERCHAN    : 10
#OFFSET      : 0
#BEAMKV      : 15
#SIGNALTYPE  : EDS
#ELEVANGLE   : 35
#AZIMANGLE   : 225
#LIVETIME    : 100
#PROBECUR    : 1
#TAUWIND     : 0
#TDEADLYR    : 0.00001
#TACTLYR     : 0.5
#TALWIND     : 0.004
#CHOFFSET    : 0.0
#XLABEL      : Energy (eV)
#YLABEL      : Counts
#EDSDET      : SIUTW
##SPECIMEN   : CuUnk
##DET_HASH   : 8bd54cba-bdb1-2809-7cdf-aba568fbcc57
##CALIB_HASH : f5ad288f-0449-f7ce-773b-4fa4d7b7a089
#SPECTRUM    :
0,
0,
0,
0,
0,
0,
0,
0,
10,
16,
34,
35,
62,
81,
53,
58,
40,
37,
63,
70,
63,
78,
98,
98,
122,
156,
135,
100,
70,
63,
45,
69,
75,
77,
105,
116,
132,
205,
342,
529,
693,
767,
717,
1114,
2716,
5278,
7314,
6953,
4273,
1990,
634,
197,
104,
101,
63,
89,
73,
83,
99,
74,
82,
82,
81,
82,
80,
102,
80,
108,
85,
95,
101,
113,
104,
115,
116,
109,
129,
134,
103,
118,
103,
118,
115,
144,
148,
102,
122,
147,
128,
136,
136,
147,
144,
135,
114,
156,
143,
135,
122,
158,
158,
133,
135,
129,
131,
168,
155,
128,
153,
141,
146,
131,
137,
119,
137,
144,
135,
137,
145,
132,
113,
135,
124,
139,
160,
131,
111,
133,
131,
148,
111,
142,
127,
130,
133,
106,
130,
135,
139,
122,
139,
115,
123,
138,
135,
131,
120,
110,
130,
140,
151,
115,
134,
90,
107,
115,
103,
117,
109,
119,
104,
130,
122,
104,
114,
80,
114,
103,
93,
113,
116,
117,
112,
130,
96,
118,
93,
120,
113,
126,
114,
109,
101,
116,
82,
95,
94,
107,
96,
97,
108,
104,
100,
107,
98,
111,
88,
85,
90,
79,
82,
104,
99,
99,
75,
81,
71,
60,
89,
77,
95,
92,
87,
88,
95,
79,
101,
75,
109,
86,
62,
86,
98,
93,
78,
100,
81,
77,
71,
96,
88,
71,
76,
61,
71,
64,
72,
82,
88,
76,
99,
75,
75,
74,
80,
65,
73,
77,
81,
81,
76,
82,
62,
61,
59,
64,
52,
66,
61,
70,
68,
53,
75,
78,
76,
71,
73,
64,
70,
58,
51,
62,
59,
72,
60,
55,
63,
51,
65,
60,
53,
74,
40,
66,
68,
61,
53,
52,
50,
49,
53,
68,
52,
52,
60,
53,
55,
59,
68,
50,
50,
57,
42,
52,
58,
61,
44,
48,
51,
41,
56,
45,
52,
52,
57,
60,
53,
49,
48,
54,
63,
48,
50,
43,
57,
43,
43,
47,
37,
31,
33,
49,
60,
38,
48,
50,
35,
54,
44,
41,
50,
45,
49,
30,
49,
63,
42,
43,
53,
44,
43,
46,
43,
35,
47,
34,
42,
42,
41,
35,
31,
33,
35,
37,
38,
40,
28,
45,
38,
34,
27,
38,
39,
44,
29,
40,
29,
36,
34,
30,
40,
38,
29,
35,
34,
47,
30,
42,
44,
29,
47,
38,
56,
67,
106,
165,
245,
394,
593,
859,
977,
1180,
1309,
1140,
1014,
777,
601,
375,
217,
121,
85,
55,
40,
35,
37,
31,
24,
33,
25,
23,
29,
25,
22,
34,
31,
35,
28,
27,
40,
35,
33,
28,
32,
29,
44,
40,
33,
47,
50,
65,
74,
111,
135,
182,
173,
169,
193,
170,
107,
98,
74,
65,
44,
31,
27,
15,
21,
26,
19,
21,
21,
20,
15,
19,
23,
18,
14,
22,
17,
19,
15,
17,
20,
15,
29,
17,
20,
25,
18,
17,
21,
19,
11,
19,
19,
13,
17,
11,
16,
9,
16,
10,
21,
19,
20,
19,
25,
16,
18,
15,
17,
10,
26,
15,
18,
16,
18,
22,
12,
8,
20,
18,
14,
16,
23,
17,
17,
20,
14,
11,
11,
16,
14,
23,
16,
17,
14,
18,
13,
9,
21,
22,
17,
19,
13,
10,
17,
14,
10,
20,
13,
11,
20,
16,
16,
11,
13,
15,
15,
16,
11,
10,
16,
14,
14,
13,
9,
11,
7,
14,
14,
9,
7,
12,
13,
8,
23,
14,
12,
14,
11,
8,
8,
16,
9,
13,
15,
10,
10,
6,
9,
8,
13,
17,
8,
11,
6,
7,
10,
5,
7,
13,
9,
7,
8,
6,
9,
12,
20,
8,
0,
0,
0,
0,
0,
0,
0,
0,
0,
0,
0,
0,
0,
0,
0,
0,
0,
0,
0,
0,
0,
0,
0,
0,
0,
0,
0,
0,
0,
0,
0,
0,
0,
0,
0,
0,
0,
0,
0,
0,
0,
0,
0,
0,
0,
0,
0,
0,
0,
0,
0,
0,
0,
0,
0,
0,
0,
0,
0,
0,
0,
0,
0,
0,
0,
0,
0,
0,
0,
0,
0,
0,
0,
0,
0,
0,
0,
0,
0,
0,
0,
0,
0,
0,
0,
0,
0,
0,
0,
0,
0,
0,
0,
0,
0,
0,
0,
0,
0,
0,
0,
0,
0,
0,
0,
0,
0,
0,
0,
0,
0,
0,
0,
0,
0,
0,
0,
0,
0,
0,
0,
0,
0,
0,
0,
0,
0,
0,
0,
0,
0,
0,
0,
0,
0,
0,
0,
0,
0,
0,
0,
0,
0,
0,
0,
0,
0,
0,
0,
0,
0,
0,
0,
0,
0,
0,
0,
0,
0,
0,
0,
0,
0,
0,
0,
0,
0,
0,
0,
0,
0,
0,
0,
0,
0,
0,
0,
0,
0,
0,
0,
0,
0,
0,
0,
0,
0,
0,
0,
0,
0,
0,
0,
0,
0,
0,
0,
0,
0,
0,
0,
0,
0,
0,
0,
0,
0,
0,
0,
0,
0,
0,
0,
0,
0,
0,
0,
0,
0,
0,
0,
0,
0,
0,
0,
0,
0,
0,
0,
0,
0,
0,
0,
0,
0,
0,
0,
0,
0,
0,
0,
0,
0,
0,
0,
0,
0,
0,
0,
0,
0,
0,
0,
0,
0,
0,
0,
0,
0,
0,
0,
0,
0,
0,
0,
0,
0,
0,
0,
0,
0,
0,
0,
0,
0,
0,
0,
0,
0,
0,
0,
0,
0,
0,
0,
0,
0,
0,
0,
0,
0,
0,
0,
0,
0,
0,
0,
0,
0,
0,
0,
0,
0,
0,
0,
0,
0,
0,
0,
0,
0,
0,
0,
0,
0,
0,
0,
0,
0,
0,
0,
0,
0,
0,
0,
0,
0,
0,
0,
0,
0,
0,
0,
0,
0,
0,
0,
0,
0,
0,
0,
0,
0,
0,
0,
0,
0,
0,
0,
0,
0,
0,
0,
0,
0,
0,
0,
0,
0,
0,
0,
0,
0,
0,
0,
0,
0,
0,
0,
0,
0,
0,
0,
0,
0,
0,
0,
0,
0,
0,
0,
0,
0,
0,
0,
0,
0,
0,
0,
0,
0,
0,
0,
0,
0,
0,
0,
0,
0,
0,
0,
0,
0,
0,
0,
0,
0,
0,
0,
0,
0,
0,
0,
0,
0,
0,
0,
0,
0,
0,
0,
0,
0,
0,
0,
#ENDOFDATA   :