File: dtsa2/detectors/2-FEI Sirion/Oxford-p6-05eV-4K/2013-08-08-FC-20kV-Pt.msa
#FORMAT      : EMSA/MAS Spectral Data File
#VERSION     : 1.0
#TITLE       : 2014-08-08-FC-20kV-Pt
#DATE        : 08-AUG-2014
#TIME        : 10:00
#OWNER       : John Minter
#NPOINTS     : 4096
#NCOLUMNS    : 1
#XUNITS      : eV
#YUNITS      : counts
#DATATYPE    : Y
#XPERCHAN    : 5.00316
#OFFSET      : -203.446
#BEAMKV      : 20
#SIGNALTYPE  : EDS
#ELEVANGLE   : 35
#AZIMANGLE   : 225
#LIVETIME    : 100.3
#REALTIME    : 193.392
#PROBECUR    : 0.81
#TAUWIND     : 0
#TDEADLYR    : 0
#TACTLYR     : 0.045
#TALWIND     : 0.003
#CHOFFSET    : 0.0
#XLABEL      : Energy (eV)
#YLABEL      : Counts
#XPOSITION   : -3.315
#YPOSITION   : 1.404
#ZPOSITION   : 5
#EDSDET      : SDDUTW
#MAGCAM      : 10000
##SPECIMEN   : 2013-08-08-FC-20kV-Pt
##DET_HASH   : 9e704189-5425-fb2b-8d73-cedcd0f1a991
##CALIB_HASH : 01c6b2a9-42a8-272c-ded3-cc8c706f70d4
#SPECTRUM    :
0,
0,
0,
0,
0,
0,
0,
0,
0,
0,
0,
0,
0,
0,
0,
0,
0,
0,
0,
0,
177,
205,
237,
310,
294,
294,
297,
310,
355,
480,
683,
785,
830,
837,
859,
709,
429,
333,
409,
573,
515,
362,
274,
263,
267,
257,
322,
357,
358,
375,
328,
263,
311,
315,
311,
342,
333,
384,
374,
349,
382,
390,
406,
411,
433,
454,
451,
502,
506,
503,
520,
544,
549,
577,
581,
583,
608,
623,
652,
644,
651,
683,
708,
755,
709,
664,
695,
724,
772,
809,
764,
795,
781,
856,
846,
813,
883,
879,
828,
841,
917,
874,
844,
843,
915,
891,
884,
915,
898,
910,
931,
957,
984,
999,
1046,
1140,
1315,
1532,
1893,
2309,
2466,
2391,
1997,
1624,
1362,
1143,
1070,
1067,
1033,
1016,
967,
1041,
1022,
955,
1007,
1006,
1040,
997,
1097,
1198,
1317,
1454,
1608,
1822,
2465,
3569,
5771,
9659,
15449,
21606,
25872,
26176,
24254,
21198,
18865,
17613,
15484,
12486,
8686,
5070,
2702,
1417,
884,
637,
666,
698,
839,
1003,
1061,
1166,
1092,
943,
769,
638,
543,
483,
451,
458,
420,
455,
470,
429,
488,
486,
482,
478,
506,
503,
510,
556,
587,
632,
644,
633,
589,
560,
582,
523,
517,
490,
466,
452,
431,
428,
433,
408,
430,
440,
464,
413,
448,
469,
420,
410,
426,
422,
439,
432,
442,
460,
430,
416,
484,
445,
431,
444,
472,
451,
473,
442,
455,
440,
464,
473,
433,
422,
434,
436,
430,
412,
455,
434,
442,
417,
443,
465,
439,
456,
452,
440,
435,
421,
449,
435,
452,
445,
449,
458,
458,
437,
454,
448,
437,
476,
460,
474,
451,
443,
448,
455,
413,
461,
437,
442,
453,
459,
471,
484,
453,
437,
473,
493,
454,
450,
470,
461,
489,
502,
508,
510,
499,
538,
502,
487,
470,
478,
459,
452,
428,
473,
453,
471,
432,
432,
444,
451,
435,
443,
446,
415,
418,
426,
431,
467,
462,
431,
446,
445,
439,
455,
421,
417,
436,
428,
432,
447,
418,
414,
458,
440,
443,
432,
436,
417,
385,
421,
428,
432,
396,
414,
423,
432,
399,
422,
451,
408,
422,
461,
431,
397,
427,
459,
441,
388,
392,
389,
434,
422,
442,
420,
419,
398,
426,
404,
424,
397,
391,
389,
407,
434,
404,
414,
394,
389,
398,
392,
378,
394,
411,
392,
394,
416,
411,
402,
390,
414,
401,
410,
363,
402,
392,
387,
356,
388,
394,
373,
373,
384,
409,
385,
386,
382,
389,
388,
394,
369,
377,
397,
385,
359,
383,
366,
377,
401,
378,
361,
362,
368,
349,
340,
372,
370,
373,
413,
362,
360,
358,
371,
338,
371,
338,
355,
350,
337,
357,
356,
325,
379,
362,
324,
389,
350,
358,
364,
334,
370,
375,
337,
381,
361,
327,
347,
361,
352,
330,
341,
329,
344,
343,
339,
326,
331,
334,
359,
341,
343,
340,
325,
354,
316,
365,
366,
331,
326,
341,
345,
315,
333,
318,
354,
351,
332,
311,
335,
355,
304,
335,
298,
325,
309,
319,
326,
312,
324,
308,
314,
313,
294,
319,
318,
322,
329,
304,
287,
324,
310,
306,
301,
301,
309,
304,
310,
326,
315,
286,
299,
298,
293,
307,
280,
296,
311,
297,
308,
307,
284,
300,
310,
294,
299,
308,
286,
289,
280,
280,
306,
308,
266,
300,
287,
285,
299,
297,
288,
265,
280,
286,
299,
267,
285,
286,
304,
317,
289,
298,
280,
295,
298,
315,
329,
332,
368,
383,
393,
376,
393,
373,
355,
337,
334,
307,
328,
313,
303,
262,
287,
257,
261,
257,
278,
275,
277,
269,
273,
245,
288,
278,
238,
266,
244,
265,
248,
242,
257,
266,
253,
240,
242,
256,
260,
254,
232,
254,
234,
236,
230,
248,
228,
246,
250,
258,
263,
257,
248,
257,
244,
261,
282,
283,
329,
296,
327,
354,
344,
373,
367,
367,
393,
383,
374,
430,
449,
518,
601,
772,
969,
1218,
1462,
1722,
1957,
2297,
2487,
2574,
2493,
2350,
2207,
1871,
1581,
1282,
1029,
795,
623,
468,
366,
318,
282,
253,
239,
224,
240,
221,
216,
225,
205,
214,
215,
212,
217,
218,
215,
201,
221,
221,
204,
219,
238,
218,
213,
218,
220,
208,
216,
244,
201,
216,
198,
195,
211,
195,
207,
189,
187,
190,
201,
208,
182,
187,
198,
195,
180,
197,
198,
201,
184,
190,
180,
190,
204,
193,
206,
183,
187,
193,
181,
193,
200,
188,
198,
185,
198,
213,
209,
213,
208,
214,
218,
236,
232,
232,
234,
258,
252,
263,
278,
268,
283,
288,
304,
289,
300,
311,
315,
368,
393,
430,
535,
560,
672,
692,
805,
851,
810,
843,
801,
794,
729,
679,
705,
680,
668,
666,
670,
677,
664,
630,
582,
533,
502,
427,
346,
320,
273,
267,
215,
186,
203,
201,
177,
206,
191,
200,
180,
213,
178,
178,
175,
159,
181,
179,
155,
155,
163,
115,
134,
161,
134,
118,
136,
135,
127,
153,
110,
148,
136,
129,
136,
130,
128,
130,
137,
133,
128,
133,
133,
123,
173,
132,
107,
139,
118,
130,
145,
105,
130,
104,
126,
126,
126,
129,
124,
118,
116,
140,
114,
116,
120,
125,
131,
137,
109,
109,
129,
133,
126,
128,
116,
111,
140,
121,
118,
148,
105,
120,
116,
106,
142,
103,
110,
123,
120,
108,
118,
94,
118,
115,
117,
134,
124,
175,
157,
158,
196,
192,
222,
206,
219,
201,
223,
198,
164,
190,
160,
174,
151,
137,
108,
103,
94,
111,
118,
125,
131,
112,
136,
123,
135,
135,
105,
122,
132,
116,
136,
128,
119,
130,
125,
100,
115,
102,
103,
97,
101,
101,
95,
110,
79,
91,
86,
93,
93,
94,
73,
89,
99,
72,
86,
95,
78,
88,
93,
88,
81,
92,
93,
109,
78,
89,
83,
80,
76,
74,
86,
75,
90,
74,
81,
79,
84,
73,
86,
69,
80,
85,
74,
72,
69,
69,
70,
76,
84,
62,
72,
83,
70,
49,
75,
69,
60,
61,
85,
68,
65,
58,
63,
75,
64,
89,
69,
70,
72,
67,
66,
74,
65,
56,
67,
73,
67,
66,
60,
63,
58,
63,
66,
66,
60,
68,
66,
69,
62,
59,
66,
74,
68,
66,
71,
55,
56,
56,
70,
53,
52,
69,
63,
62,
60,
41,
64,
64,
69,
42,
56,
58,
58,
56,
56,
60,
63,
59,
59,
64,
53,
55,
56,
49,
53,
50,
69,
47,
67,
50,
53,
68,
45,
52,
50,
51,
56,
55,
41,
45,
53,
50,
53,
47,
53,
47,
40,
49,
45,
45,
50,
53,
35,
40,
40,
38,
47,
44,
60,
47,
44,
43,
49,
44,
40,
43,
54,
45,
47,
42,
41,
43,
46,
47,
44,
35,
51,
41,
41,
44,
40,
35,
33,
47,
47,
41,
40,
40,
36,
51,
42,
34,
38,
34,
35,
36,
32,
42,
37,
35,
37,
39,
45,
31,
32,
33,
38,
35,
36,
30,
41,
35,
36,
29,
31,
34,
35,
41,
40,
27,
35,
44,
34,
31,
30,
23,
30,
37,
31,
36,
29,
24,
34,
29,
24,
28,
30,
32,
33,
35,
29,
27,
33,
25,
29,
33,
29,
26,
34,
21,
26,
18,
22,
28,
23,
34,
25,
18,
27,
25,
34,
27,
24,
28,
25,
25,
17,
30,
25,
32,
29,
26,
22,
21,
34,
29,
25,
16,
21,
20,
22,
19,
24,
14,
32,
24,
18,
14,
21,
17,
18,
23,
25,
23,
19,
20,
19,
22,
21,
25,
20,
18,
19,
19,
18,
22,
17,
24,
23,
17,
19,
17,
16,
15,
19,
21,
14,
17,
19,
16,
18,
13,
15,
15,
15,
12,
13,
13,
15,
20,
10,
17,
19,
21,
13,
13,
14,
13,
12,
10,
14,
16,
14,
13,
15,
9,
16,
8,
11,
9,
10,
18,
17,
9,
14,
19,
18,
14,
13,
14,
14,
14,
14,
16,
6,
13,
12,
10,
7,
9,
11,
7,
13,
8,
12,
11,
14,
6,
8,
14,
7,
5,
12,
9,
7,
11,
8,
10,
6,
10,
8,
9,
10,
4,
3,
1,
6,
4,
6,
7,
5,
4,
8,
5,
10,
5,
6,
7,
7,
7,
7,
7,
5,
3,
2,
4,
5,
5,
6,
4,
5,
4,
6,
4,
6,
4,
2,
3,
2,
2,
0,
2,
2,
4,
3,
3,
0,
0,
1,
1,
3,
1,
1,
1,
1,
2,
1,
3,
0,
2,
0,
2,
2,
3,
3,
#ENDOFDATA   :