File: dtsa2/detectors/2-FEI Sirion/Cu-15kV-P4-20-4K-250s.txt
#FORMAT      : EMSA/MAS Spectral Data File
#VERSION     : 1.0
#TITLE       : Cu-15kV-P4-20-4K-250s
#DATE        : 07-NOV-2016
#TIME        : 09:56
#OWNER       :
#NPOINTS     : 4096.0
#NCOLUMNS    : 1.0
#XUNITS      : keV
#YUNITS      : counts
#DATATYPE    : XY
#XPERCHAN    : 0.005
#OFFSET      : -0.2
#SIGNALTYPE  : EDS
#CHOFFSET    : 40.0
#LIVETIME    : 250.0
#REALTIME    : 357.18
#BEAMKV      : 15.0
#PROBECUR    : 0.0
#MAGCAM      : 2000.0
#XTILTSTGE   : 0.0
#AZIMANGLE   : 0.0
#ELEVANGLE   : 35.0
#XPOSITION mm: 0.1850
#YPOSITION mm: -0.7430
#ZPOSITION mm: 3.4990
##OXINSTPT   : 4
##OXINSTSTROB: 48.08
##OXINSTELEMS: 6,29,8,13
##OXINSTLABEL: 6, 0.277, C
##OXINSTLABEL: 29, 8.048, Cu
##OXINSTLABEL: 29, 8.905, Cu
##OXINSTLABEL: 29, 0.930, Cu
##OXINSTLABEL: 29, 0.832, Cu
##OXINSTLABEL: 29, 0.811, Cu
##OXINSTLABEL: 8, 0.525, O
##OXINSTLABEL: 13, 1.487, Al
#SPECTRUM    : Spectral Data Starts Here
-0.20000, 0.0
-0.18500, 0.0
-0.17000, 0.0
-0.15500, 0.0
-0.14000, 0.0
-0.12500, 0.0
-0.11000, 0.0
-0.09500, 0.0
-0.08000, 1.0
-0.06500, 2.0
-0.05000, 52.0
-0.03500, 281.0
-0.02000, 1167.0
-0.00500, 2638.0
0.01000, 3905.0
0.02500, 4656.0
0.04000, 4829.0
0.05500, 3786.0
0.07000, 2297.0
0.08500, 1351.0
0.10000, 1095.0
0.11500, 997.0
0.13000, 1000.0
0.14500, 1026.0
0.16000, 1095.0
0.17500, 1076.0
0.19000, 1177.0
0.20500, 1236.0
0.22000, 1550.0
0.23500, 2154.0
0.25000, 3307.0
0.26500, 4265.0
0.28000, 4528.0
0.29500, 3388.0
0.31000, 2179.0
0.32500, 1558.0
0.34000, 1462.0
0.35500, 1555.0
0.37000, 1707.0
0.38500, 1952.0
0.40000, 2046.0
0.41500, 2285.0
0.43000, 2561.0
0.44500, 2742.0
0.46000, 3247.0
0.47500, 3683.0
0.49000, 4350.0
0.50500, 5120.0
0.52000, 5697.0
0.53500, 5409.0
0.55000, 4896.0
0.56500, 4260.0
0.58000, 4343.0
0.59500, 4265.0
0.61000, 4731.0
0.62500, 4967.0
0.64000, 5345.0
0.65500, 5573.0
0.67000, 6063.0
0.68500, 6449.0
0.70000, 7081.0
0.71500, 7513.0
0.73000, 8455.0
0.74500, 10123.0
0.76000, 14217.0
0.77500, 21367.0
0.79000, 31079.0
0.80500, 39790.0
0.82000, 42140.0
0.83500, 38546.0
0.85000, 35323.0
0.86500, 44730.0
0.88000, 84431.0
0.89500, 163806.0
0.91000, 268432.0
0.92500, 348218.0
0.94000, 348677.0
0.95500, 270767.0
0.97000, 165634.0
0.98500, 80809.0
1.00000, 33056.0
1.01500, 12762.0
1.03000, 6097.0
1.04500, 3954.0
1.06000, 3062.0
1.07500, 2754.0
1.09000, 2375.0
1.10500, 2241.0
1.12000, 2187.0
1.13500, 2219.0
1.15000, 2282.0
1.16500, 2258.0
1.18000, 2380.0
1.19500, 2363.0
1.21000, 2503.0
1.22500, 2558.0
1.24000, 2647.0
1.25500, 2713.0
1.27000, 2746.0
1.28500, 2699.0
1.30000, 2681.0
1.31500, 2616.0
1.33000, 2590.0
1.34500, 2674.0
1.36000, 2670.0
1.37500, 2756.0
1.39000, 2815.0
1.40500, 2923.0
1.42000, 3218.0
1.43500, 3908.0
1.45000, 4791.0
1.46500, 5931.0
1.48000, 6736.0
1.49500, 6936.0
1.51000, 6366.0
1.52500, 5329.0
1.54000, 4505.0
1.55500, 3714.0
1.57000, 3393.0
1.58500, 3353.0
1.60000, 3224.0
1.61500, 3297.0
1.63000, 3257.0
1.64500, 3333.0
1.66000, 3391.0
1.67500, 3415.0
1.69000, 3537.0
1.70500, 3623.0
1.72000, 3765.0
1.73500, 3882.0
1.75000, 4062.0
1.76500, 4028.0
1.78000, 4132.0
1.79500, 4034.0
1.81000, 4285.0
1.82500, 4700.0
1.84000, 5223.0
1.85500, 5416.0
1.87000, 5582.0
1.88500, 5313.0
1.90000, 4805.0
1.91500, 4330.0
1.93000, 3969.0
1.94500, 3685.0
1.96000, 3565.0
1.97500, 3578.0
1.99000, 3454.0
2.00500, 3532.0
2.02000, 3560.0
2.03500, 3565.0
2.05000, 3461.0
2.06500, 3501.0
2.08000, 3520.0
2.09500, 3625.0
2.11000, 3627.0
2.12500, 3546.0
2.14000, 3589.0
2.15500, 3579.0
2.17000, 3610.0
2.18500, 3688.0
2.20000, 3560.0
2.21500, 3656.0
2.23000, 3694.0
2.24500, 3598.0
2.26000, 3624.0
2.27500, 3680.0
2.29000, 3771.0
2.30500, 3756.0
2.32000, 3738.0
2.33500, 3786.0
2.35000, 3706.0
2.36500, 3794.0
2.38000, 3762.0
2.39500, 3743.0
2.41000, 3580.0
2.42500, 3661.0
2.44000, 3653.0
2.45500, 3628.0
2.47000, 3567.0
2.48500, 3653.0
2.50000, 3623.0
2.51500, 3575.0
2.53000, 3560.0
2.54500, 3614.0
2.56000, 3545.0
2.57500, 3555.0
2.59000, 3568.0
2.60500, 3642.0
2.62000, 3720.0
2.63500, 3625.0
2.65000, 3640.0
2.66500, 3610.0
2.68000, 3559.0
2.69500, 3583.0
2.71000, 3524.0
2.72500, 3515.0
2.74000, 3557.0
2.75500, 3544.0
2.77000, 3514.0
2.78500, 3425.0
2.80000, 3501.0
2.81500, 3499.0
2.83000, 3448.0
2.84500, 3475.0
2.86000, 3528.0
2.87500, 3428.0
2.89000, 3410.0
2.90500, 3407.0
2.92000, 3501.0
2.93500, 3516.0
2.95000, 3371.0
2.96500, 3336.0
2.98000, 3375.0
2.99500, 3365.0
3.01000, 3366.0
3.02500, 3324.0
3.04000, 3247.0
3.05500, 3274.0
3.07000, 3312.0
3.08500, 3391.0
3.10000, 3311.0
3.11500, 3293.0
3.13000, 3278.0
3.14500, 3227.0
3.16000, 3224.0
3.17500, 3219.0
3.19000, 3279.0
3.20500, 3178.0
3.22000, 3239.0
3.23500, 3203.0
3.25000, 3179.0
3.26500, 3183.0
3.28000, 3134.0
3.29500, 3143.0
3.31000, 3088.0
3.32500, 3204.0
3.34000, 3060.0
3.35500, 3122.0
3.37000, 3152.0
3.38500, 3044.0
3.40000, 3053.0
3.41500, 3043.0
3.43000, 3076.0
3.44500, 2977.0
3.46000, 3046.0
3.47500, 3025.0
3.49000, 2956.0
3.50500, 2984.0
3.52000, 3006.0
3.53500, 2982.0
3.55000, 3066.0
3.56500, 2880.0
3.58000, 3003.0
3.59500, 2937.0
3.61000, 2922.0
3.62500, 3033.0
3.64000, 2887.0
3.65500, 2925.0
3.67000, 2828.0
3.68500, 2852.0
3.70000, 2841.0
3.71500, 2834.0
3.73000, 2854.0
3.74500, 2778.0
3.76000, 2776.0
3.77500, 2777.0
3.79000, 2741.0
3.80500, 2763.0
3.82000, 2728.0
3.83500, 2697.0
3.85000, 2743.0
3.86500, 2737.0
3.88000, 2694.0
3.89500, 2701.0
3.91000, 2634.0
3.92500, 2721.0
3.94000, 2648.0
3.95500, 2685.0
3.97000, 2605.0
3.98500, 2626.0
4.00000, 2606.0
4.01500, 2594.0
4.03000, 2618.0
4.04500, 2606.0
4.06000, 2542.0
4.07500, 2614.0
4.09000, 2579.0
4.10500, 2551.0
4.12000, 2547.0
4.13500, 2564.0
4.15000, 2506.0
4.16500, 2529.0
4.18000, 2530.0
4.19500, 2501.0
4.21000, 2484.0
4.22500, 2488.0
4.24000, 2417.0
4.25500, 2444.0
4.27000, 2391.0
4.28500, 2388.0
4.30000, 2421.0
4.31500, 2363.0
4.33000, 2399.0
4.34500, 2362.0
4.36000, 2313.0
4.37500, 2348.0
4.39000, 2397.0
4.40500, 2368.0
4.42000, 2311.0
4.43500, 2369.0
4.45000, 2308.0
4.46500, 2335.0
4.48000, 2332.0
4.49500, 2236.0
4.51000, 2294.0
4.52500, 2326.0
4.54000, 2278.0
4.55500, 2247.0
4.57000, 2222.0
4.58500, 2199.0
4.60000, 2207.0
4.61500, 2204.0
4.63000, 2199.0
4.64500, 2211.0
4.66000, 2215.0
4.67500, 2155.0
4.69000, 2162.0
4.70500, 2117.0
4.72000, 2152.0
4.73500, 2120.0
4.75000, 2113.0
4.76500, 2115.0
4.78000, 2114.0
4.79500, 2101.0
4.81000, 2080.0
4.82500, 2070.0
4.84000, 2106.0
4.85500, 2092.0
4.87000, 2056.0
4.88500, 2010.0
4.90000, 2028.0
4.91500, 2034.0
4.93000, 2035.0
4.94500, 2058.0
4.96000, 2043.0
4.97500, 1972.0
4.99000, 1980.0
5.00500, 1988.0
5.02000, 1976.0
5.03500, 1877.0
5.05000, 1980.0
5.06500, 1921.0
5.08000, 1895.0
5.09500, 1900.0
5.11000, 1922.0
5.12500, 1950.0
5.14000, 1929.0
5.15500, 1905.0
5.17000, 1896.0
5.18500, 1880.0
5.20000, 1871.0
5.21500, 1850.0
5.23000, 1848.0
5.24500, 1826.0
5.26000, 1913.0
5.27500, 1908.0
5.29000, 1782.0
5.30500, 1866.0
5.32000, 1821.0
5.33500, 1832.0
5.35000, 1763.0
5.36500, 1853.0
5.38000, 1842.0
5.39500, 1798.0
5.41000, 1731.0
5.42500, 1749.0
5.44000, 1742.0
5.45500, 1790.0
5.47000, 1773.0
5.48500, 1793.0
5.50000, 1711.0
5.51500, 1777.0
5.53000, 1711.0
5.54500, 1739.0
5.56000, 1800.0
5.57500, 1713.0
5.59000, 1703.0
5.60500, 1696.0
5.62000, 1652.0
5.63500, 1678.0
5.65000, 1723.0
5.66500, 1640.0
5.68000, 1651.0
5.69500, 1654.0
5.71000, 1621.0
5.72500, 1585.0
5.74000, 1617.0
5.75500, 1637.0
5.77000, 1640.0
5.78500, 1661.0
5.80000, 1574.0
5.81500, 1603.0
5.83000, 1577.0
5.84500, 1627.0
5.86000, 1559.0
5.87500, 1641.0
5.89000, 1544.0
5.90500, 1525.0
5.92000, 1563.0
5.93500, 1530.0
5.95000, 1506.0
5.96500, 1564.0
5.98000, 1488.0
5.99500, 1490.0
6.01000, 1488.0
6.02500, 1511.0
6.04000, 1533.0
6.05500, 1517.0
6.07000, 1503.0
6.08500, 1482.0
6.10000, 1474.0
6.11500, 1477.0
6.13000, 1500.0
6.14500, 1460.0
6.16000, 1443.0
6.17500, 1470.0
6.19000, 1480.0
6.20500, 1470.0
6.22000, 1550.0
6.23500, 1491.0
6.25000, 1472.0
6.26500, 1528.0
6.28000, 1475.0
6.29500, 1465.0
6.31000, 1494.0
6.32500, 1495.0
6.34000, 1418.0
6.35500, 1433.0
6.37000, 1419.0
6.38500, 1433.0
6.40000, 1430.0
6.41500, 1363.0
6.43000, 1329.0
6.44500, 1394.0
6.46000, 1362.0
6.47500, 1339.0
6.49000, 1318.0
6.50500, 1357.0
6.52000, 1408.0
6.53500, 1374.0
6.55000, 1353.0
6.56500, 1290.0
6.58000, 1316.0
6.59500, 1270.0
6.61000, 1286.0
6.62500, 1371.0
6.64000, 1303.0
6.65500, 1303.0
6.67000, 1293.0
6.68500, 1296.0
6.70000, 1357.0
6.71500, 1231.0
6.73000, 1248.0
6.74500, 1269.0
6.76000, 1260.0
6.77500, 1205.0
6.79000, 1263.0
6.80500, 1261.0
6.82000, 1225.0
6.83500, 1297.0
6.85000, 1227.0
6.86500, 1221.0
6.88000, 1170.0
6.89500, 1191.0
6.91000, 1175.0
6.92500, 1159.0
6.94000, 1201.0
6.95500, 1206.0
6.97000, 1221.0
6.98500, 1112.0
7.00000, 1159.0
7.01500, 1130.0
7.03000, 1167.0
7.04500, 1164.0
7.06000, 1182.0
7.07500, 1196.0
7.09000, 1173.0
7.10500, 1137.0
7.12000, 1173.0
7.13500, 1127.0
7.15000, 1181.0
7.16500, 1137.0
7.18000, 1107.0
7.19500, 1099.0
7.21000, 1122.0
7.22500, 1135.0
7.24000, 1113.0
7.25500, 1131.0
7.27000, 1071.0
7.28500, 1115.0
7.30000, 1113.0
7.31500, 1097.0
7.33000, 1055.0
7.34500, 1073.0
7.36000, 1101.0
7.37500, 1097.0
7.39000, 1018.0
7.40500, 1138.0
7.42000, 1103.0
7.43500, 1046.0
7.45000, 1019.0
7.46500, 1097.0
7.48000, 1052.0
7.49500, 1003.0
7.51000, 1091.0
7.52500, 1065.0
7.54000, 1041.0
7.55500, 1070.0
7.57000, 999.0
7.58500, 1091.0
7.60000, 961.0
7.61500, 1086.0
7.63000, 1048.0
7.64500, 1012.0
7.66000, 1008.0
7.67500, 1069.0
7.69000, 1036.0
7.70500, 1017.0
7.72000, 1099.0
7.73500, 1086.0
7.75000, 1063.0
7.76500, 1039.0
7.78000, 1042.0
7.79500, 1090.0
7.81000, 1122.0
7.82500, 1194.0
7.84000, 1355.0
7.85500, 1563.0
7.87000, 1969.0
7.88500, 2919.0
7.90000, 4277.0
7.91500, 6309.0
7.93000, 9113.0
7.94500, 13058.0
7.96000, 17169.0
7.97500, 22349.0
7.99000, 27783.0
8.00500, 32164.0
8.02000, 35301.0
8.03500, 37020.0
8.05000, 36440.0
8.06500, 34266.0
8.08000, 29912.0
8.09500, 25441.0
8.11000, 20024.0
8.12500, 15359.0
8.14000, 10908.0
8.15500, 7635.0
8.17000, 5196.0
8.18500, 3513.0
8.20000, 2441.0
8.21500, 1762.0
8.23000, 1371.0
8.24500, 1075.0
8.26000, 1031.0
8.27500, 971.0
8.29000, 955.0
8.30500, 874.0
8.32000, 853.0
8.33500, 913.0
8.35000, 883.0
8.36500, 877.0
8.38000, 875.0
8.39500, 852.0
8.41000, 903.0
8.42500, 841.0
8.44000, 883.0
8.45500, 861.0
8.47000, 894.0
8.48500, 878.0
8.50000, 903.0
8.51500, 924.0
8.53000, 844.0
8.54500, 811.0
8.56000, 813.0
8.57500, 844.0
8.59000, 883.0
8.60500, 882.0
8.62000, 878.0
8.63500, 833.0
8.65000, 874.0
8.66500, 934.0
8.68000, 905.0
8.69500, 969.0
8.71000, 977.0
8.72500, 1051.0
8.74000, 1146.0
8.75500, 1261.0
8.77000, 1546.0
8.78500, 2040.0
8.80000, 2322.0
8.81500, 2970.0
8.83000, 3638.0
8.84500, 4247.0
8.86000, 4779.0
8.87500, 5379.0
8.89000, 5843.0
8.90500, 5885.0
8.92000, 5734.0
8.93500, 5445.0
8.95000, 4800.0
8.96500, 4303.0
8.98000, 3679.0
8.99500, 3074.0
9.01000, 2381.0
9.02500, 1932.0
9.04000, 1561.0
9.05500, 1250.0
9.07000, 1049.0
9.08500, 880.0
9.10000, 766.0
9.11500, 745.0
9.13000, 656.0
9.14500, 631.0
9.16000, 652.0
9.17500, 634.0
9.19000, 592.0
9.20500, 633.0
9.22000, 626.0
9.23500, 600.0
9.25000, 633.0
9.26500, 610.0
9.28000, 590.0
9.29500, 594.0
9.31000, 617.0
9.32500, 589.0
9.34000, 630.0
9.35500, 607.0
9.37000, 578.0
9.38500, 612.0
9.40000, 575.0
9.41500, 589.0
9.43000, 566.0
9.44500, 557.0
9.46000, 563.0
9.47500, 567.0
9.49000, 639.0
9.50500, 583.0
9.52000, 600.0
9.53500, 563.0
9.55000, 610.0
9.56500, 632.0
9.58000, 584.0
9.59500, 568.0
9.61000, 588.0
9.62500, 584.0
9.64000, 587.0
9.65500, 551.0
9.67000, 562.0
9.68500, 588.0
9.70000, 566.0
9.71500, 570.0
9.73000, 591.0
9.74500, 603.0
9.76000, 585.0
9.77500, 613.0
9.79000, 627.0
9.80500, 614.0
9.82000, 619.0
9.83500, 589.0
9.85000, 624.0
9.86500, 631.0
9.88000, 548.0
9.89500, 596.0
9.91000, 592.0
9.92500, 570.0
9.94000, 562.0
9.95500, 527.0
9.97000, 530.0
9.98500, 543.0
10.00000, 517.0
10.01500, 506.0
10.03000, 534.0
10.04500, 527.0
10.06000, 509.0
10.07500, 494.0
10.09000, 482.0
10.10500, 527.0
10.12000, 494.0
10.13500, 510.0
10.15000, 508.0
10.16500, 502.0
10.18000, 502.0
10.19500, 508.0
10.21000, 513.0
10.22500, 495.0
10.24000, 472.0
10.25500, 486.0
10.27000, 482.0
10.28500, 464.0
10.30000, 451.0
10.31500, 469.0
10.33000, 489.0
10.34500, 499.0
10.36000, 475.0
10.37500, 490.0
10.39000, 484.0
10.40500, 471.0
10.42000, 423.0
10.43500, 449.0
10.45000, 488.0
10.46500, 471.0
10.48000, 464.0
10.49500, 451.0
10.51000, 445.0
10.52500, 428.0
10.54000, 451.0
10.55500, 446.0
10.57000, 408.0
10.58500, 414.0
10.60000, 428.0
10.61500, 439.0
10.63000, 436.0
10.64500, 434.0
10.66000, 459.0
10.67500, 425.0
10.69000, 440.0
10.70500, 415.0
10.72000, 434.0
10.73500, 414.0
10.75000, 422.0
10.76500, 432.0
10.78000, 415.0
10.79500, 423.0
10.81000, 425.0
10.82500, 386.0
10.84000, 418.0
10.85500, 430.0
10.87000, 409.0
10.88500, 414.0
10.90000, 385.0
10.91500, 391.0
10.93000, 382.0
10.94500, 372.0
10.96000, 385.0
10.97500, 388.0
10.99000, 398.0
11.00500, 394.0
11.02000, 362.0
11.03500, 385.0
11.05000, 390.0
11.06500, 380.0
11.08000, 391.0
11.09500, 389.0
11.11000, 388.0
11.12500, 370.0
11.14000, 355.0
11.15500, 396.0
11.17000, 370.0
11.18500, 373.0
11.20000, 360.0
11.21500, 357.0
11.23000, 338.0
11.24500, 360.0
11.26000, 385.0
11.27500, 324.0
11.29000, 340.0
11.30500, 348.0
11.32000, 341.0
11.33500, 341.0
11.35000, 332.0
11.36500, 366.0
11.38000, 305.0
11.39500, 313.0
11.41000, 319.0
11.42500, 358.0
11.44000, 343.0
11.45500, 327.0
11.47000, 311.0
11.48500, 327.0
11.50000, 339.0
11.51500, 325.0
11.53000, 310.0
11.54500, 320.0
11.56000, 319.0
11.57500, 306.0
11.59000, 317.0
11.60500, 311.0
11.62000, 306.0
11.63500, 315.0
11.65000, 305.0
11.66500, 307.0
11.68000, 311.0
11.69500, 291.0
11.71000, 292.0
11.72500, 305.0
11.74000, 317.0
11.75500, 307.0
11.77000, 300.0
11.78500, 289.0
11.80000, 254.0
11.81500, 278.0
11.83000, 291.0
11.84500, 274.0
11.86000, 287.0
11.87500, 270.0
11.89000, 288.0
11.90500, 274.0
11.92000, 272.0
11.93500, 261.0
11.95000, 260.0
11.96500, 272.0
11.98000, 254.0
11.99500, 241.0
12.01000, 278.0
12.02500, 252.0
12.04000, 244.0
12.05500, 274.0
12.07000, 276.0
12.08500, 259.0
12.10000, 253.0
12.11500, 278.0
12.13000, 248.0
12.14500, 239.0
12.16000, 257.0
12.17500, 262.0
12.19000, 234.0
12.20500, 247.0
12.22000, 243.0
12.23500, 250.0
12.25000, 231.0
12.26500, 254.0
12.28000, 238.0
12.29500, 232.0
12.31000, 247.0
12.32500, 245.0
12.34000, 225.0
12.35500, 232.0
12.37000, 228.0
12.38500, 236.0
12.40000, 231.0
12.41500, 232.0
12.43000, 223.0
12.44500, 213.0
12.46000, 212.0
12.47500, 213.0
12.49000, 220.0
12.50500, 239.0
12.52000, 202.0
12.53500, 203.0
12.55000, 197.0
12.56500, 212.0
12.58000, 214.0
12.59500, 171.0
12.61000, 208.0
12.62500, 204.0
12.64000, 212.0
12.65500, 210.0
12.67000, 185.0
12.68500, 190.0
12.70000, 189.0
12.71500, 198.0
12.73000, 178.0
12.74500, 169.0
12.76000, 209.0
12.77500, 183.0
12.79000, 200.0
12.80500, 192.0
12.82000, 200.0
12.83500, 191.0
12.85000, 200.0
12.86500, 175.0
12.88000, 173.0
12.89500, 168.0
12.91000, 173.0
12.92500, 165.0
12.94000, 170.0
12.95500, 157.0
12.97000, 184.0
12.98500, 185.0
13.00000, 157.0
13.01500, 174.0
13.03000, 155.0
13.04500, 166.0
13.06000, 171.0
13.07500, 162.0
13.09000, 163.0
13.10500, 156.0
13.12000, 149.0
13.13500, 160.0
13.15000, 160.0
13.16500, 157.0
13.18000, 149.0
13.19500, 148.0
13.21000, 153.0
13.22500, 161.0
13.24000, 154.0
13.25500, 140.0
13.27000, 128.0
13.28500, 121.0
13.30000, 137.0
13.31500, 143.0
13.33000, 150.0
13.34500, 117.0
13.36000, 129.0
13.37500, 141.0
13.39000, 116.0
13.40500, 131.0
13.42000, 120.0
13.43500, 125.0
13.45000, 119.0
13.46500, 126.0
13.48000, 121.0
13.49500, 124.0
13.51000, 129.0
13.52500, 115.0
13.54000, 133.0
13.55500, 118.0
13.57000, 117.0
13.58500, 123.0
13.60000, 95.0
13.61500, 123.0
13.63000, 126.0
13.64500, 114.0
13.66000, 114.0
13.67500, 114.0
13.69000, 110.0
13.70500, 98.0
13.72000, 93.0
13.73500, 111.0
13.75000, 92.0
13.76500, 107.0
13.78000, 101.0
13.79500, 108.0
13.81000, 98.0
13.82500, 102.0
13.84000, 85.0
13.85500, 97.0
13.87000, 95.0
13.88500, 89.0
13.90000, 85.0
13.91500, 80.0
13.93000, 83.0
13.94500, 91.0
13.96000, 94.0
13.97500, 87.0
13.99000, 77.0
14.00500, 88.0
14.02000, 79.0
14.03500, 78.0
14.05000, 80.0
14.06500, 91.0
14.08000, 87.0
14.09500, 78.0
14.11000, 76.0
14.12500, 73.0
14.14000, 75.0
14.15500, 69.0
14.17000, 69.0
14.18500, 62.0
14.20000, 69.0
14.21500, 65.0
14.23000, 73.0
14.24500, 71.0
14.26000, 66.0
14.27500, 65.0
14.29000, 62.0
14.30500, 60.0
14.32000, 66.0
14.33500, 55.0
14.35000, 62.0
14.36500, 59.0
14.38000, 49.0
14.39500, 57.0
14.41000, 54.0
14.42500, 50.0
14.44000, 55.0
14.45500, 47.0
14.47000, 47.0
14.48500, 45.0
14.50000, 43.0
14.51500, 45.0
14.53000, 42.0
14.54500, 41.0
14.56000, 44.0
14.57500, 46.0
14.59000, 40.0
14.60500, 45.0
14.62000, 34.0
14.63500, 45.0
14.65000, 43.0
14.66500, 39.0
14.68000, 25.0
14.69500, 36.0
14.71000, 37.0
14.72500, 37.0
14.74000, 37.0
14.75500, 26.0
14.77000, 30.0
14.78500, 28.0
14.80000, 32.0
14.81500, 24.0
14.83000, 26.0
14.84500, 28.0
14.86000, 25.0
14.87500, 27.0
14.89000, 19.0
14.90500, 24.0
14.92000, 21.0
14.93500, 17.0
14.95000, 22.0
14.96500, 20.0
14.98000, 10.0
14.99500, 22.0
15.01000, 12.0
15.02500, 13.0
15.04000, 18.0
15.05500, 13.0
15.07000, 13.0
15.08500, 15.0
15.10000, 10.0
15.11500, 10.0
15.13000, 10.0
15.14500, 12.0
15.16000, 9.0
15.17500, 12.0
15.19000, 10.0
15.20500, 14.0
15.22000, 15.0
15.23500, 9.0
15.25000, 7.0
15.26500, 13.0
15.28000, 9.0
15.29500, 10.0
15.31000, 16.0
15.32500, 13.0
15.34000, 11.0
15.35500, 10.0
15.37000, 8.0
15.38500, 7.0
15.40000, 11.0
15.41500, 8.0
15.43000, 14.0
15.44500, 10.0
15.46000, 10.0
15.47500, 8.0
15.49000, 11.0
15.50500, 7.0
15.52000, 7.0
15.53500, 11.0
15.55000, 7.0
15.56500, 7.0
15.58000, 9.0
15.59500, 9.0
15.61000, 8.0
15.62500, 10.0
15.64000, 9.0
15.65500, 12.0
15.67000, 6.0
15.68500, 10.0
15.70000, 10.0
15.71500, 7.0
15.73000, 5.0
15.74500, 9.0
15.76000, 6.0
15.77500, 10.0
15.79000, 9.0
15.80500, 12.0
15.82000, 8.0
15.83500, 9.0
15.85000, 12.0
15.86500, 17.0
15.88000, 16.0
15.89500, 18.0
15.91000, 20.0
15.92500, 20.0
15.94000, 25.0
15.95500, 27.0
15.97000, 46.0
15.98500, 35.0
16.00000, 41.0
16.01500, 65.0
16.03000, 56.0
16.04500, 66.0
16.06000, 64.0
16.07500, 64.0
16.09000, 54.0
16.10500, 60.0
16.12000, 59.0
16.13500, 60.0
16.15000, 45.0
16.16500, 48.0
16.18000, 43.0
16.19500, 30.0
16.21000, 29.0
16.22500, 26.0
16.24000, 20.0
16.25500, 11.0
16.27000, 13.0
16.28500, 2.0
16.30000, 9.0
16.31500, 10.0
16.33000, 12.0
16.34500, 10.0
16.36000, 11.0
16.37500, 6.0
16.39000, 8.0
16.40500, 11.0
16.42000, 3.0
16.43500, 7.0
16.45000, 7.0
16.46500, 9.0
16.48000, 2.0
16.49500, 5.0
16.51000, 10.0
16.52500, 8.0
16.54000, 5.0
16.55500, 5.0
16.57000, 7.0
16.58500, 6.0
16.60000, 8.0
16.61500, 7.0
16.63000, 8.0
16.64500, 8.0
16.66000, 5.0
16.67500, 3.0
16.69000, 13.0
16.70500, 7.0
16.72000, 6.0
16.73500, 5.0
16.75000, 4.0
16.76500, 14.0
16.78000, 12.0
16.79500, 15.0
16.81000, 5.0
16.82500, 16.0
16.84000, 14.0
16.85500, 12.0
16.87000, 18.0
16.88500, 20.0
16.90000, 16.0
16.91500, 21.0
16.93000, 24.0
16.94500, 15.0
16.96000, 31.0
16.97500, 23.0
16.99000, 17.0
17.00500, 13.0
17.02000, 16.0
17.03500, 13.0
17.05000, 16.0
17.06500, 11.0
17.08000, 13.0
17.09500, 6.0
17.11000, 7.0
17.12500, 6.0
17.14000, 7.0
17.15500, 8.0
17.17000, 6.0
17.18500, 7.0
17.20000, 6.0
17.21500, 9.0
17.23000, 7.0
17.24500, 5.0
17.26000, 6.0
17.27500, 7.0
17.29000, 7.0
17.30500, 5.0
17.32000, 10.0
17.33500, 5.0
17.35000, 6.0
17.36500, 5.0
17.38000, 3.0
17.39500, 9.0
17.41000, 6.0
17.42500, 8.0
17.44000, 5.0
17.45500, 6.0
17.47000, 5.0
17.48500, 6.0
17.50000, 10.0
17.51500, 4.0
17.53000, 8.0
17.54500, 5.0
17.56000, 6.0
17.57500, 5.0
17.59000, 4.0
17.60500, 7.0
17.62000, 5.0
17.63500, 5.0
17.65000, 3.0
17.66500, 4.0
17.68000, 5.0
17.69500, 6.0
17.71000, 5.0
17.72500, 2.0
17.74000, 9.0
17.75500, 11.0
17.77000, 3.0
17.78500, 8.0
17.80000, 4.0
17.81500, 8.0
17.83000, 5.0
17.84500, 5.0
17.86000, 7.0
17.87500, 4.0
17.89000, 7.0
17.90500, 4.0
17.92000, 6.0
17.93500, 8.0
17.95000, 5.0
17.96500, 5.0
17.98000, 3.0
17.99500, 6.0
18.01000, 4.0
18.02500, 3.0
18.04000, 3.0
18.05500, 2.0
18.07000, 8.0
18.08500, 2.0
18.10000, 3.0
18.11500, 5.0
18.13000, 3.0
18.14500, 5.0
18.16000, 6.0
18.17500, 3.0
18.19000, 2.0
18.20500, 1.0
18.22000, 5.0
18.23500, 5.0
18.25000, 4.0
18.26500, 7.0
18.28000, 4.0
18.29500, 5.0
18.31000, 2.0
18.32500, 6.0
18.34000, 4.0
18.35500, 4.0
18.37000, 4.0
18.38500, 6.0
18.40000, 2.0
18.41500, 5.0
18.43000, 4.0
18.44500, 5.0
18.46000, 4.0
18.47500, 5.0
18.49000, 3.0
18.50500, 6.0
18.52000, 9.0
18.53500, 5.0
18.55000, 5.0
18.56500, 5.0
18.58000, 5.0
18.59500, 4.0
18.61000, 6.0
18.62500, 3.0
18.64000, 4.0
18.65500, 4.0
18.67000, 5.0
18.68500, 3.0
18.70000, 2.0
18.71500, 3.0
18.73000, 4.0
18.74500, 4.0
18.76000, 6.0
18.77500, 4.0
18.79000, 8.0
18.80500, 4.0
18.82000, 3.0
18.83500, 3.0
18.85000, 2.0
18.86500, 2.0
18.88000, 1.0
18.89500, 6.0
18.91000, 4.0
18.92500, 3.0
18.94000, 1.0
18.95500, 3.0
18.97000, 3.0
18.98500, 3.0
19.00000, 2.0
19.01500, 2.0
19.03000, 3.0
19.04500, 4.0
19.06000, 0.0
19.07500, 2.0
19.09000, 3.0
19.10500, 5.0
19.12000, 2.0
19.13500, 6.0
19.15000, 5.0
19.16500, 5.0
19.18000, 1.0
19.19500, 5.0
19.21000, 3.0
19.22500, 3.0
19.24000, 4.0
19.25500, 4.0
19.27000, 3.0
19.28500, 4.0
19.30000, 1.0
19.31500, 2.0
19.33000, 2.0
19.34500, 4.0
19.36000, 5.0
19.37500, 2.0
19.39000, 2.0
19.40500, 1.0
19.42000, 3.0
19.43500, 2.0
19.45000, 0.0
19.46500, 3.0
19.48000, 6.0
19.49500, 2.0
19.51000, 2.0
19.52500, 4.0
19.54000, 2.0
19.55500, 2.0
19.57000, 2.0
19.58500, 2.0
19.60000, 2.0
19.61500, 2.0
19.63000, 1.0
19.64500, 2.0
19.66000, 2.0
19.67500, 1.0
19.69000, 3.0
19.70500, 2.0
19.72000, 2.0
19.73500, 3.0
19.75000, 3.0
19.76500, 1.0
19.78000, 3.0
19.79500, 3.0
19.81000, 2.0
19.82500, 5.0
19.84000, 2.0
19.85500, 2.0
19.87000, 2.0
19.88500, 1.0
19.90000, 1.0
19.91500, 1.0
19.93000, 2.0
19.94500, 1.0
19.96000, 3.0
19.97500, 1.0
19.99000, 3.0
20.00500, 2.0
20.02000, 1.0
20.03500, 6.0
20.05000, 2.0
20.06500, 1.0
20.08000, 2.0
20.09500, 1.0
20.11000, 1.0
20.12500, 4.0
20.14000, 2.0
20.15500, 3.0
20.17000, 3.0
20.18500, 3.0
20.20000, 2.0
20.21500, 2.0
20.23000, 1.0
20.24500, 2.0
20.26000, 2.0
20.27500, 2.0
#ENDOFDATA   :