File: dtsa2/detectors/2-FEI Sirion/Oxford p4 10eV 2K.txt
#FORMAT      : EMSA/MAS Spectral Data File
#VERSION     : 1.0
#TITLE       : 2048-10eV-s5-p4
#DATE        : 29-MAY-2014
#TIME        : 15:10
#OWNER       :
#NPOINTS     : 2048.0
#NCOLUMNS    : 1.0
#XUNITS      : keV
#YUNITS      : counts
#DATATYPE    : XY
#XPERCHAN    : 0.01
#OFFSET      : -0.2
#SIGNALTYPE  : EDS
#CHOFFSET    : 20.0
#LIVETIME    : 100.376
#REALTIME    : 137.811
#BEAMKV      : 20.0
#PROBECUR    : 0.0
#MAGCAM      : 3500.0
#XTILTSTGE   : 0.0
#AZIMANGLE   : 0.0
#ELEVANGLE   : 35.0
#XPOSITION mm: -3.1130
#YPOSITION mm: 1.3240
#ZPOSITION mm: 5.0130
##OXINSTPT   : 4
##OXINSTSTROB: 48.11
##OXINSTELEMS: 6,25,13,14
##OXINSTLABEL: 6, 0.277, C
##OXINSTLABEL: 25, 5.899, Mn
##OXINSTLABEL: 25, 6.490, Mn
##OXINSTLABEL: 25, 0.636, Mn
##OXINSTLABEL: 25, 0.567, Mn
##OXINSTLABEL: 13, 1.487, Al
##OXINSTLABEL: 14, 1.740, Si
#SPECTRUM    : Spectral Data Starts Here
-0.20000, 0.0
-0.18000, 0.0
-0.16000, 0.0
-0.14000, 0.0
-0.12000, 0.0
-0.10000, 0.0
-0.08000, 0.0
-0.06000, 8.0
-0.04000, 144.0
-0.02000, 928.0
0.00000, 2468.0
0.02000, 3650.0
0.04000, 3956.0
0.06000, 2666.0
0.08000, 1068.0
0.10000, 613.0
0.12000, 593.0
0.14000, 569.0
0.16000, 641.0
0.18000, 749.0
0.20000, 804.0
0.22000, 1225.0
0.24000, 2320.0
0.26000, 3930.0
0.28000, 4434.0
0.30000, 3003.0
0.32000, 1490.0
0.34000, 991.0
0.36000, 1176.0
0.38000, 1368.0
0.40000, 1562.0
0.42000, 1870.0
0.44000, 2279.0
0.46000, 2934.0
0.48000, 4355.0
0.50000, 7259.0
0.52000, 13456.0
0.54000, 20703.0
0.56000, 23440.0
0.58000, 22094.0
0.60000, 27178.0
0.62000, 40890.0
0.64000, 45269.0
0.66000, 31195.0
0.68000, 13272.0
0.70000, 4217.0
0.72000, 1638.0
0.74000, 1171.0
0.76000, 962.0
0.78000, 881.0
0.80000, 851.0
0.82000, 883.0
0.84000, 953.0
0.86000, 949.0
0.88000, 985.0
0.90000, 1103.0
0.92000, 1115.0
0.94000, 1173.0
0.96000, 1205.0
0.98000, 1260.0
1.00000, 1317.0
1.02000, 1342.0
1.04000, 1408.0
1.06000, 1455.0
1.08000, 1505.0
1.10000, 1579.0
1.12000, 1650.0
1.14000, 1646.0
1.16000, 1754.0
1.18000, 1824.0
1.20000, 1861.0
1.22000, 1909.0
1.24000, 2028.0
1.26000, 2035.0
1.28000, 2138.0
1.30000, 2083.0
1.32000, 2095.0
1.34000, 2169.0
1.36000, 2163.0
1.38000, 2228.0
1.40000, 2258.0
1.42000, 2360.0
1.44000, 2496.0
1.46000, 2714.0
1.48000, 2861.0
1.50000, 2918.0
1.52000, 2781.0
1.54000, 2638.0
1.56000, 2557.0
1.58000, 2434.0
1.60000, 2457.0
1.62000, 2515.0
1.64000, 2532.0
1.66000, 2519.0
1.68000, 2614.0
1.70000, 2688.0
1.72000, 2786.0
1.74000, 2838.0
1.76000, 2763.0
1.78000, 2785.0
1.80000, 2768.0
1.82000, 2672.0
1.84000, 2650.0
1.86000, 2679.0
1.88000, 2593.0
1.90000, 2632.0
1.92000, 2639.0
1.94000, 2811.0
1.96000, 2677.0
1.98000, 2729.0
2.00000, 2717.0
2.02000, 2785.0
2.04000, 2751.0
2.06000, 2683.0
2.08000, 2801.0
2.10000, 2818.0
2.12000, 2768.0
2.14000, 2785.0
2.16000, 2720.0
2.18000, 2713.0
2.20000, 2806.0
2.22000, 2864.0
2.24000, 2764.0
2.26000, 2869.0
2.28000, 2879.0
2.30000, 2893.0
2.32000, 2845.0
2.34000, 2829.0
2.36000, 2821.0
2.38000, 2818.0
2.40000, 2764.0
2.42000, 2845.0
2.44000, 2813.0
2.46000, 2728.0
2.48000, 2801.0
2.50000, 2760.0
2.52000, 2773.0
2.54000, 2831.0
2.56000, 2780.0
2.58000, 2792.0
2.60000, 2691.0
2.62000, 2684.0
2.64000, 2726.0
2.66000, 2798.0
2.68000, 2778.0
2.70000, 2726.0
2.72000, 2691.0
2.74000, 2705.0
2.76000, 2648.0
2.78000, 2673.0
2.80000, 2642.0
2.82000, 2633.0
2.84000, 2573.0
2.86000, 2571.0
2.88000, 2634.0
2.90000, 2516.0
2.92000, 2612.0
2.94000, 2599.0
2.96000, 2523.0
2.98000, 2592.0
3.00000, 2569.0
3.02000, 2544.0
3.04000, 2541.0
3.06000, 2531.0
3.08000, 2556.0
3.10000, 2499.0
3.12000, 2495.0
3.14000, 2482.0
3.16000, 2440.0
3.18000, 2449.0
3.20000, 2456.0
3.22000, 2468.0
3.24000, 2381.0
3.26000, 2398.0
3.28000, 2286.0
3.30000, 2385.0
3.32000, 2332.0
3.34000, 2310.0
3.36000, 2371.0
3.38000, 2319.0
3.40000, 2350.0
3.42000, 2352.0
3.44000, 2270.0
3.46000, 2277.0
3.48000, 2259.0
3.50000, 2226.0
3.52000, 2271.0
3.54000, 2238.0
3.56000, 2219.0
3.58000, 2260.0
3.60000, 2248.0
3.62000, 2141.0
3.64000, 2183.0
3.66000, 2113.0
3.68000, 2165.0
3.70000, 2175.0
3.72000, 2133.0
3.74000, 2112.0
3.76000, 2081.0
3.78000, 2163.0
3.80000, 2076.0
3.82000, 2093.0
3.84000, 2033.0
3.86000, 2088.0
3.88000, 1988.0
3.90000, 2026.0
3.92000, 2004.0
3.94000, 2061.0
3.96000, 1982.0
3.98000, 1950.0
4.00000, 2005.0
4.02000, 2020.0
4.04000, 2017.0
4.06000, 2104.0
4.08000, 2131.0
4.10000, 2206.0
4.12000, 2402.0
4.14000, 2446.0
4.16000, 2485.0
4.18000, 2330.0
4.20000, 2184.0
4.22000, 2041.0
4.24000, 1948.0
4.26000, 1896.0
4.28000, 1860.0
4.30000, 1842.0
4.32000, 1827.0
4.34000, 1781.0
4.36000, 1803.0
4.38000, 1806.0
4.40000, 1808.0
4.42000, 1765.0
4.44000, 1771.0
4.46000, 1756.0
4.48000, 1733.0
4.50000, 1721.0
4.52000, 1680.0
4.54000, 1758.0
4.56000, 1721.0
4.58000, 1665.0
4.60000, 1698.0
4.62000, 1672.0
4.64000, 1673.0
4.66000, 1692.0
4.68000, 1699.0
4.70000, 1688.0
4.72000, 1762.0
4.74000, 1716.0
4.76000, 1692.0
4.78000, 1651.0
4.80000, 1664.0
4.82000, 1674.0
4.84000, 1598.0
4.86000, 1617.0
4.88000, 1574.0
4.90000, 1621.0
4.92000, 1615.0
4.94000, 1601.0
4.96000, 1567.0
4.98000, 1544.0
5.00000, 1561.0
5.02000, 1585.0
5.04000, 1558.0
5.06000, 1511.0
5.08000, 1506.0
5.10000, 1482.0
5.12000, 1471.0
5.14000, 1503.0
5.16000, 1450.0
5.18000, 1488.0
5.20000, 1428.0
5.22000, 1501.0
5.24000, 1446.0
5.26000, 1471.0
5.28000, 1443.0
5.30000, 1443.0
5.32000, 1437.0
5.34000, 1368.0
5.36000, 1422.0
5.38000, 1383.0
5.40000, 1376.0
5.42000, 1397.0
5.44000, 1405.0
5.46000, 1434.0
5.48000, 1406.0
5.50000, 1409.0
5.52000, 1427.0
5.54000, 1380.0
5.56000, 1410.0
5.58000, 1375.0
5.60000, 1519.0
5.62000, 1487.0
5.64000, 1551.0
5.66000, 1570.0
5.68000, 1648.0
5.70000, 1859.0
5.72000, 2434.0
5.74000, 3734.0
5.76000, 7230.0
5.78000, 14578.0
5.80000, 27569.0
5.82000, 47705.0
5.84000, 73294.0
5.86000, 100351.0
5.88000, 119716.0
5.90000, 125182.0
5.92000, 115215.0
5.94000, 93285.0
5.96000, 65904.0
5.98000, 41498.0
6.00000, 23074.0
6.02000, 11719.0
6.04000, 5647.0
6.06000, 3004.0
6.08000, 1925.0
6.10000, 1543.0
6.12000, 1363.0
6.14000, 1384.0
6.16000, 1381.0
6.18000, 1393.0
6.20000, 1399.0
6.22000, 1333.0
6.24000, 1418.0
6.26000, 1388.0
6.28000, 1484.0
6.30000, 1561.0
6.32000, 1768.0
6.34000, 2154.0
6.36000, 2866.0
6.38000, 4286.0
6.40000, 6292.0
6.42000, 9318.0
6.44000, 12215.0
6.46000, 15237.0
6.48000, 16816.0
6.50000, 16585.0
6.52000, 14904.0
6.54000, 11895.0
6.56000, 8646.0
6.58000, 5818.0
6.60000, 3618.0
6.62000, 2184.0
6.64000, 1481.0
6.66000, 1124.0
6.68000, 906.0
6.70000, 859.0
6.72000, 831.0
6.74000, 837.0
6.76000, 786.0
6.78000, 813.0
6.80000, 829.0
6.82000, 816.0
6.84000, 812.0
6.86000, 821.0
6.88000, 824.0
6.90000, 797.0
6.92000, 791.0
6.94000, 797.0
6.96000, 829.0
6.98000, 824.0
7.00000, 816.0
7.02000, 863.0
7.04000, 841.0
7.06000, 841.0
7.08000, 833.0
7.10000, 897.0
7.12000, 858.0
7.14000, 790.0
7.16000, 801.0
7.18000, 799.0
7.20000, 796.0
7.22000, 801.0
7.24000, 814.0
7.26000, 772.0
7.28000, 810.0
7.30000, 793.0
7.32000, 767.0
7.34000, 795.0
7.36000, 729.0
7.38000, 820.0
7.40000, 791.0
7.42000, 759.0
7.44000, 748.0
7.46000, 792.0
7.48000, 738.0
7.50000, 773.0
7.52000, 785.0
7.54000, 779.0
7.56000, 802.0
7.58000, 804.0
7.60000, 714.0
7.62000, 814.0
7.64000, 776.0
7.66000, 766.0
7.68000, 748.0
7.70000, 764.0
7.72000, 748.0
7.74000, 706.0
7.76000, 710.0
7.78000, 738.0
7.80000, 736.0
7.82000, 768.0
7.84000, 756.0
7.86000, 700.0
7.88000, 696.0
7.90000, 767.0
7.92000, 752.0
7.94000, 694.0
7.96000, 736.0
7.98000, 744.0
8.00000, 725.0
8.02000, 705.0
8.04000, 744.0
8.06000, 704.0
8.08000, 747.0
8.10000, 700.0
8.12000, 681.0
8.14000, 711.0
8.16000, 728.0
8.18000, 760.0
8.20000, 716.0
8.22000, 662.0
8.24000, 660.0
8.26000, 701.0
8.28000, 717.0
8.30000, 656.0
8.32000, 710.0
8.34000, 680.0
8.36000, 647.0
8.38000, 656.0
8.40000, 693.0
8.42000, 677.0
8.44000, 690.0
8.46000, 693.0
8.48000, 685.0
8.50000, 666.0
8.52000, 629.0
8.54000, 673.0
8.56000, 668.0
8.58000, 661.0
8.60000, 654.0
8.62000, 654.0
8.64000, 670.0
8.66000, 614.0
8.68000, 669.0
8.70000, 639.0
8.72000, 631.0
8.74000, 649.0
8.76000, 661.0
8.78000, 619.0
8.80000, 665.0
8.82000, 635.0
8.84000, 662.0
8.86000, 581.0
8.88000, 627.0
8.90000, 639.0
8.92000, 616.0
8.94000, 588.0
8.96000, 620.0
8.98000, 649.0
9.00000, 586.0
9.02000, 627.0
9.04000, 656.0
9.06000, 601.0
9.08000, 678.0
9.10000, 545.0
9.12000, 592.0
9.14000, 576.0
9.16000, 565.0
9.18000, 557.0
9.20000, 600.0
9.22000, 581.0
9.24000, 619.0
9.26000, 592.0
9.28000, 606.0
9.30000, 581.0
9.32000, 624.0
9.34000, 549.0
9.36000, 569.0
9.38000, 518.0
9.40000, 598.0
9.42000, 585.0
9.44000, 583.0
9.46000, 530.0
9.48000, 569.0
9.50000, 561.0
9.52000, 531.0
9.54000, 584.0
9.56000, 524.0
9.58000, 564.0
9.60000, 507.0
9.62000, 576.0
9.64000, 486.0
9.66000, 535.0
9.68000, 528.0
9.70000, 517.0
9.72000, 511.0
9.74000, 542.0
9.76000, 546.0
9.78000, 526.0
9.80000, 531.0
9.82000, 523.0
9.84000, 495.0
9.86000, 543.0
9.88000, 507.0
9.90000, 559.0
9.92000, 513.0
9.94000, 539.0
9.96000, 507.0
9.98000, 505.0
10.00000, 486.0
10.02000, 546.0
10.04000, 522.0
10.06000, 494.0
10.08000, 520.0
10.10000, 517.0
10.12000, 473.0
10.14000, 485.0
10.16000, 491.0
10.18000, 487.0
10.20000, 481.0
10.22000, 466.0
10.24000, 451.0
10.26000, 485.0
10.28000, 504.0
10.30000, 506.0
10.32000, 496.0
10.34000, 495.0
10.36000, 528.0
10.38000, 475.0
10.40000, 486.0
10.42000, 456.0
10.44000, 468.0
10.46000, 481.0
10.48000, 500.0
10.50000, 515.0
10.52000, 459.0
10.54000, 490.0
10.56000, 433.0
10.58000, 483.0
10.60000, 467.0
10.62000, 469.0
10.64000, 468.0
10.66000, 447.0
10.68000, 445.0
10.70000, 433.0
10.72000, 441.0
10.74000, 445.0
10.76000, 444.0
10.78000, 419.0
10.80000, 410.0
10.82000, 388.0
10.84000, 464.0
10.86000, 441.0
10.88000, 425.0
10.90000, 463.0
10.92000, 438.0
10.94000, 430.0
10.96000, 413.0
10.98000, 427.0
11.00000, 379.0
11.02000, 402.0
11.04000, 403.0
11.06000, 407.0
11.08000, 416.0
11.10000, 389.0
11.12000, 393.0
11.14000, 425.0
11.16000, 389.0
11.18000, 393.0
11.20000, 391.0
11.22000, 390.0
11.24000, 386.0
11.26000, 408.0
11.28000, 380.0
11.30000, 365.0
11.32000, 383.0
11.34000, 374.0
11.36000, 379.0
11.38000, 390.0
11.40000, 366.0
11.42000, 379.0
11.44000, 371.0
11.46000, 364.0
11.48000, 359.0
11.50000, 345.0
11.52000, 373.0
11.54000, 378.0
11.56000, 373.0
11.58000, 368.0
11.60000, 413.0
11.62000, 434.0
11.64000, 437.0
11.66000, 554.0
11.68000, 585.0
11.70000, 669.0
11.72000, 847.0
11.74000, 895.0
11.76000, 1005.0
11.78000, 1080.0
11.80000, 1047.0
11.82000, 1024.0
11.84000, 947.0
11.86000, 836.0
11.88000, 707.0
11.90000, 610.0
11.92000, 536.0
11.94000, 407.0
11.96000, 409.0
11.98000, 373.0
12.00000, 329.0
12.02000, 343.0
12.04000, 327.0
12.06000, 317.0
12.08000, 328.0
12.10000, 324.0
12.12000, 324.0
12.14000, 314.0
12.16000, 331.0
12.18000, 314.0
12.20000, 293.0
12.22000, 356.0
12.24000, 341.0
12.26000, 357.0
12.28000, 379.0
12.30000, 396.0
12.32000, 415.0
12.34000, 467.0
12.36000, 467.0
12.38000, 484.0
12.40000, 483.0
12.42000, 480.0
12.44000, 436.0
12.46000, 414.0
12.48000, 388.0
12.50000, 383.0
12.52000, 340.0
12.54000, 317.0
12.56000, 312.0
12.58000, 282.0
12.60000, 315.0
12.62000, 269.0
12.64000, 262.0
12.66000, 267.0
12.68000, 268.0
12.70000, 262.0
12.72000, 273.0
12.74000, 236.0
12.76000, 268.0
12.78000, 263.0
12.80000, 252.0
12.82000, 261.0
12.84000, 257.0
12.86000, 280.0
12.88000, 248.0
12.90000, 269.0
12.92000, 281.0
12.94000, 254.0
12.96000, 259.0
12.98000, 275.0
13.00000, 258.0
13.02000, 264.0
13.04000, 263.0
13.06000, 260.0
13.08000, 232.0
13.10000, 252.0
13.12000, 235.0
13.14000, 235.0
13.16000, 233.0
13.18000, 236.0
13.20000, 225.0
13.22000, 215.0
13.24000, 219.0
13.26000, 222.0
13.28000, 242.0
13.30000, 227.0
13.32000, 242.0
13.34000, 217.0
13.36000, 219.0
13.38000, 226.0
13.40000, 233.0
13.42000, 211.0
13.44000, 212.0
13.46000, 211.0
13.48000, 252.0
13.50000, 213.0
13.52000, 205.0
13.54000, 221.0
13.56000, 228.0
13.58000, 212.0
13.60000, 225.0
13.62000, 214.0
13.64000, 205.0
13.66000, 238.0
13.68000, 189.0
13.70000, 188.0
13.72000, 214.0
13.74000, 205.0
13.76000, 213.0
13.78000, 202.0
13.80000, 210.0
13.82000, 185.0
13.84000, 195.0
13.86000, 203.0
13.88000, 207.0
13.90000, 172.0
13.92000, 177.0
13.94000, 205.0
13.96000, 187.0
13.98000, 194.0
14.00000, 186.0
14.02000, 175.0
14.04000, 166.0
14.06000, 207.0
14.08000, 187.0
14.10000, 178.0
14.12000, 168.0
14.14000, 174.0
14.16000, 175.0
14.18000, 180.0
14.20000, 167.0
14.22000, 170.0
14.24000, 183.0
14.26000, 175.0
14.28000, 185.0
14.30000, 170.0
14.32000, 175.0
14.34000, 179.0
14.36000, 173.0
14.38000, 167.0
14.40000, 169.0
14.42000, 168.0
14.44000, 181.0
14.46000, 162.0
14.48000, 156.0
14.50000, 139.0
14.52000, 148.0
14.54000, 160.0
14.56000, 159.0
14.58000, 162.0
14.60000, 139.0
14.62000, 153.0
14.64000, 133.0
14.66000, 163.0
14.68000, 157.0
14.70000, 144.0
14.72000, 137.0
14.74000, 140.0
14.76000, 144.0
14.78000, 131.0
14.80000, 134.0
14.82000, 150.0
14.84000, 147.0
14.86000, 136.0
14.88000, 154.0
14.90000, 130.0
14.92000, 131.0
14.94000, 131.0
14.96000, 129.0
14.98000, 139.0
15.00000, 160.0
15.02000, 121.0
15.04000, 134.0
15.06000, 129.0
15.08000, 129.0
15.10000, 116.0
15.12000, 130.0
15.14000, 129.0
15.16000, 118.0
15.18000, 140.0
15.20000, 108.0
15.22000, 137.0
15.24000, 121.0
15.26000, 130.0
15.28000, 127.0
15.30000, 117.0
15.32000, 106.0
15.34000, 110.0
15.36000, 108.0
15.38000, 126.0
15.40000, 113.0
15.42000, 113.0
15.44000, 115.0
15.46000, 120.0
15.48000, 114.0
15.50000, 104.0
15.52000, 125.0
15.54000, 102.0
15.56000, 101.0
15.58000, 111.0
15.60000, 113.0
15.62000, 109.0
15.64000, 102.0
15.66000, 111.0
15.68000, 107.0
15.70000, 111.0
15.72000, 105.0
15.74000, 98.0
15.76000, 102.0
15.78000, 105.0
15.80000, 96.0
15.82000, 106.0
15.84000, 100.0
15.86000, 105.0
15.88000, 106.0
15.90000, 97.0
15.92000, 94.0
15.94000, 85.0
15.96000, 96.0
15.98000, 91.0
16.00000, 92.0
16.02000, 87.0
16.04000, 89.0
16.06000, 83.0
16.08000, 85.0
16.10000, 89.0
16.12000, 85.0
16.14000, 98.0
16.16000, 92.0
16.18000, 94.0
16.20000, 88.0
16.22000, 89.0
16.24000, 91.0
16.26000, 77.0
16.28000, 84.0
16.30000, 80.0
16.32000, 78.0
16.34000, 91.0
16.36000, 83.0
16.38000, 77.0
16.40000, 75.0
16.42000, 70.0
16.44000, 85.0
16.46000, 84.0
16.48000, 69.0
16.50000, 88.0
16.52000, 78.0
16.54000, 66.0
16.56000, 81.0
16.58000, 68.0
16.60000, 73.0
16.62000, 64.0
16.64000, 79.0
16.66000, 77.0
16.68000, 70.0
16.70000, 71.0
16.72000, 68.0
16.74000, 73.0
16.76000, 61.0
16.78000, 72.0
16.80000, 72.0
16.82000, 73.0
16.84000, 68.0
16.86000, 70.0
16.88000, 66.0
16.90000, 59.0
16.92000, 66.0
16.94000, 53.0
16.96000, 49.0
16.98000, 61.0
17.00000, 69.0
17.02000, 56.0
17.04000, 52.0
17.06000, 66.0
17.08000, 56.0
17.10000, 59.0
17.12000, 62.0
17.14000, 62.0
17.16000, 60.0
17.18000, 59.0
17.20000, 56.0
17.22000, 46.0
17.24000, 45.0
17.26000, 48.0
17.28000, 59.0
17.30000, 49.0
17.32000, 55.0
17.34000, 48.0
17.36000, 49.0
17.38000, 36.0
17.40000, 47.0
17.42000, 43.0
17.44000, 51.0
17.46000, 46.0
17.48000, 54.0
17.50000, 48.0
17.52000, 43.0
17.54000, 53.0
17.56000, 43.0
17.58000, 52.0
17.60000, 57.0
17.62000, 43.0
17.64000, 44.0
17.66000, 49.0
17.68000, 56.0
17.70000, 51.0
17.72000, 49.0
17.74000, 35.0
17.76000, 50.0
17.78000, 37.0
17.80000, 40.0
17.82000, 48.0
17.84000, 29.0
17.86000, 38.0
17.88000, 38.0
17.90000, 44.0
17.92000, 31.0
17.94000, 35.0
17.96000, 32.0
17.98000, 35.0
18.00000, 39.0
18.02000, 31.0
18.04000, 39.0
18.06000, 33.0
18.08000, 35.0
18.10000, 36.0
18.12000, 42.0
18.14000, 38.0
18.16000, 39.0
18.18000, 35.0
18.20000, 30.0
18.22000, 34.0
18.24000, 33.0
18.26000, 38.0
18.28000, 37.0
18.30000, 26.0
18.32000, 21.0
18.34000, 32.0
18.36000, 42.0
18.38000, 33.0
18.40000, 35.0
18.42000, 25.0
18.44000, 36.0
18.46000, 31.0
18.48000, 25.0
18.50000, 24.0
18.52000, 35.0
18.54000, 31.0
18.56000, 30.0
18.58000, 21.0
18.60000, 25.0
18.62000, 27.0
18.64000, 22.0
18.66000, 25.0
18.68000, 18.0
18.70000, 21.0
18.72000, 22.0
18.74000, 20.0
18.76000, 25.0
18.78000, 24.0
18.80000, 18.0
18.82000, 16.0
18.84000, 29.0
18.86000, 18.0
18.88000, 21.0
18.90000, 17.0
18.92000, 23.0
18.94000, 20.0
18.96000, 16.0
18.98000, 24.0
19.00000, 19.0
19.02000, 13.0
19.04000, 24.0
19.06000, 15.0
19.08000, 16.0
19.10000, 20.0
19.12000, 16.0
19.14000, 17.0
19.16000, 21.0
19.18000, 17.0
19.20000, 16.0
19.22000, 21.0
19.24000, 14.0
19.26000, 8.0
19.28000, 13.0
19.30000, 12.0
19.32000, 17.0
19.34000, 6.0
19.36000, 18.0
19.38000, 14.0
19.40000, 15.0
19.42000, 12.0
19.44000, 17.0
19.46000, 13.0
19.48000, 13.0
19.50000, 13.0
19.52000, 15.0
19.54000, 12.0
19.56000, 11.0
19.58000, 17.0
19.60000, 17.0
19.62000, 13.0
19.64000, 9.0
19.66000, 8.0
19.68000, 9.0
19.70000, 10.0
19.72000, 7.0
19.74000, 11.0
19.76000, 7.0
19.78000, 7.0
19.80000, 9.0
19.82000, 10.0
19.84000, 6.0
19.86000, 8.0
19.88000, 8.0
19.90000, 3.0
19.92000, 9.0
19.94000, 8.0
19.96000, 5.0
19.98000, 5.0
20.00000, 6.0
20.02000, 4.0
20.04000, 5.0
20.06000, 7.0
20.08000, 6.0
20.10000, 6.0
20.12000, 6.0
20.14000, 4.0
20.16000, 6.0
20.18000, 4.0
20.20000, 5.0
20.22000, 7.0
20.24000, 4.0
20.26000, 5.0
20.27000, 5.0
#ENDOFDATA   :