File: dtsa2/detectors/2-FEI Sirion/Oxford p6 05eV 4K.txt
#FORMAT      : EMSA/MAS Spectral Data File
#VERSION     : 1.0
#TITLE       : 4096-5eV-s4-p6
#DATE        : 29-MAY-2014
#TIME        : 14:56
#OWNER       :
#NPOINTS     : 4096.0
#NCOLUMNS    : 1.0
#XUNITS      : keV
#YUNITS      : counts
#DATATYPE    : XY
#XPERCHAN    : 0.005
#OFFSET      : -0.2
#SIGNALTYPE  : EDS
#CHOFFSET    : 40.0
#LIVETIME    : 100.654
#REALTIME    : 141.284
#BEAMKV      : 20.0
#PROBECUR    : 0.0
#MAGCAM      : 3500.0
#XTILTSTGE   : 0.0
#AZIMANGLE   : 0.0
#ELEVANGLE   : 35.0
#XPOSITION mm: -3.1130
#YPOSITION mm: 1.3240
#ZPOSITION mm: 5.0130
##OXINSTPT   : 6
##OXINSTSTROB: 34.42
##OXINSTELEMS: 25,6,13
##OXINSTLABEL: 25, 5.899, Mn
##OXINSTLABEL: 25, 6.490, Mn
##OXINSTLABEL: 25, 0.636, Mn
##OXINSTLABEL: 25, 0.567, Mn
##OXINSTLABEL: 6, 0.277, C
##OXINSTLABEL: 13, 1.487, Al
#SPECTRUM    : Spectral Data Starts Here
-0.20000, 0.0
-0.18500, 0.0
-0.17000, 0.0
-0.15500, 0.0
-0.14000, 0.0
-0.12500, 0.0
-0.11000, 0.0
-0.09500, 0.0
-0.08000, 0.0
-0.06500, 0.0
-0.05000, 8.0
-0.03500, 113.0
-0.02000, 929.0
-0.00500, 3017.0
0.01000, 4160.0
0.02500, 2410.0
0.04000, 618.0
0.05500, 107.0
0.07000, 49.0
0.08500, 56.0
0.10000, 65.0
0.11500, 64.0
0.13000, 54.0
0.14500, 70.0
0.16000, 84.0
0.17500, 92.0
0.19000, 100.0
0.20500, 108.0
0.22000, 139.0
0.23500, 192.0
0.25000, 341.0
0.26500, 639.0
0.28000, 665.0
0.29500, 417.0
0.31000, 182.0
0.32500, 112.0
0.34000, 105.0
0.35500, 114.0
0.37000, 141.0
0.38500, 153.0
0.40000, 208.0
0.41500, 219.0
0.43000, 236.0
0.44500, 305.0
0.46000, 333.0
0.47500, 410.0
0.49000, 534.0
0.50500, 883.0
0.52000, 1413.0
0.53500, 2241.0
0.55000, 2974.0
0.56500, 2788.0
0.58000, 2197.0
0.59500, 2321.0
0.61000, 3662.0
0.62500, 5648.0
0.64000, 6182.0
0.65500, 4373.0
0.67000, 2132.0
0.68500, 728.0
0.70000, 278.0
0.71500, 156.0
0.73000, 132.0
0.74500, 138.0
0.76000, 93.0
0.77500, 104.0
0.79000, 85.0
0.80500, 90.0
0.82000, 97.0
0.83500, 88.0
0.85000, 102.0
0.86500, 113.0
0.88000, 124.0
0.89500, 134.0
0.91000, 119.0
0.92500, 128.0
0.94000, 135.0
0.95500, 138.0
0.97000, 127.0
0.98500, 144.0
1.00000, 167.0
1.01500, 154.0
1.03000, 164.0
1.04500, 175.0
1.06000, 172.0
1.07500, 180.0
1.09000, 185.0
1.10500, 164.0
1.12000, 191.0
1.13500, 176.0
1.15000, 206.0
1.16500, 197.0
1.18000, 211.0
1.19500, 206.0
1.21000, 211.0
1.22500, 219.0
1.24000, 233.0
1.25500, 239.0
1.27000, 222.0
1.28500, 237.0
1.30000, 224.0
1.31500, 258.0
1.33000, 243.0
1.34500, 226.0
1.36000, 244.0
1.37500, 245.0
1.39000, 277.0
1.40500, 266.0
1.42000, 245.0
1.43500, 271.0
1.45000, 297.0
1.46500, 321.0
1.48000, 330.0
1.49500, 352.0
1.51000, 329.0
1.52500, 302.0
1.54000, 279.0
1.55500, 294.0
1.57000, 288.0
1.58500, 273.0
1.60000, 284.0
1.61500, 274.0
1.63000, 272.0
1.64500, 271.0
1.66000, 272.0
1.67500, 318.0
1.69000, 295.0
1.70500, 306.0
1.72000, 327.0
1.73500, 309.0
1.75000, 319.0
1.76500, 307.0
1.78000, 321.0
1.79500, 313.0
1.81000, 312.0
1.82500, 327.0
1.84000, 297.0
1.85500, 330.0
1.87000, 301.0
1.88500, 332.0
1.90000, 271.0
1.91500, 297.0
1.93000, 308.0
1.94500, 301.0
1.96000, 299.0
1.97500, 291.0
1.99000, 311.0
2.00500, 328.0
2.02000, 321.0
2.03500, 301.0
2.05000, 303.0
2.06500, 299.0
2.08000, 337.0
2.09500, 328.0
2.11000, 313.0
2.12500, 320.0
2.14000, 335.0
2.15500, 303.0
2.17000, 346.0
2.18500, 327.0
2.20000, 309.0
2.21500, 303.0
2.23000, 291.0
2.24500, 304.0
2.26000, 303.0
2.27500, 321.0
2.29000, 333.0
2.30500, 317.0
2.32000, 332.0
2.33500, 310.0
2.35000, 345.0
2.36500, 314.0
2.38000, 330.0
2.39500, 329.0
2.41000, 315.0
2.42500, 317.0
2.44000, 323.0
2.45500, 316.0
2.47000, 316.0
2.48500, 326.0
2.50000, 319.0
2.51500, 316.0
2.53000, 296.0
2.54500, 310.0
2.56000, 317.0
2.57500, 310.0
2.59000, 313.0
2.60500, 309.0
2.62000, 309.0
2.63500, 324.0
2.65000, 294.0
2.66500, 306.0
2.68000, 345.0
2.69500, 312.0
2.71000, 307.0
2.72500, 306.0
2.74000, 302.0
2.75500, 306.0
2.77000, 274.0
2.78500, 290.0
2.80000, 300.0
2.81500, 326.0
2.83000, 290.0
2.84500, 301.0
2.86000, 287.0
2.87500, 313.0
2.89000, 284.0
2.90500, 312.0
2.92000, 300.0
2.93500, 315.0
2.95000, 298.0
2.96500, 311.0
2.98000, 307.0
2.99500, 293.0
3.01000, 274.0
3.02500, 287.0
3.04000, 284.0
3.05500, 300.0
3.07000, 280.0
3.08500, 278.0
3.10000, 285.0
3.11500, 293.0
3.13000, 270.0
3.14500, 301.0
3.16000, 291.0
3.17500, 276.0
3.19000, 267.0
3.20500, 280.0
3.22000, 282.0
3.23500, 268.0
3.25000, 295.0
3.26500, 259.0
3.28000, 269.0
3.29500, 258.0
3.31000, 276.0
3.32500, 261.0
3.34000, 268.0
3.35500, 248.0
3.37000, 252.0
3.38500, 281.0
3.40000, 262.0
3.41500, 252.0
3.43000, 225.0
3.44500, 243.0
3.46000, 271.0
3.47500, 230.0
3.49000, 249.0
3.50500, 274.0
3.52000, 258.0
3.53500, 237.0
3.55000, 265.0
3.56500, 255.0
3.58000, 265.0
3.59500, 249.0
3.61000, 238.0
3.62500, 251.0
3.64000, 249.0
3.65500, 243.0
3.67000, 253.0
3.68500, 244.0
3.70000, 251.0
3.71500, 248.0
3.73000, 246.0
3.74500, 243.0
3.76000, 245.0
3.77500, 230.0
3.79000, 224.0
3.80500, 257.0
3.82000, 270.0
3.83500, 241.0
3.85000, 241.0
3.86500, 228.0
3.88000, 249.0
3.89500, 258.0
3.91000, 257.0
3.92500, 238.0
3.94000, 232.0
3.95500, 219.0
3.97000, 232.0
3.98500, 217.0
4.00000, 251.0
4.01500, 245.0
4.03000, 225.0
4.04500, 240.0
4.06000, 220.0
4.07500, 231.0
4.09000, 258.0
4.10500, 279.0
4.12000, 249.0
4.13500, 298.0
4.15000, 297.0
4.16500, 267.0
4.18000, 267.0
4.19500, 250.0
4.21000, 240.0
4.22500, 245.0
4.24000, 217.0
4.25500, 210.0
4.27000, 212.0
4.28500, 209.0
4.30000, 202.0
4.31500, 210.0
4.33000, 210.0
4.34500, 209.0
4.36000, 201.0
4.37500, 212.0
4.39000, 203.0
4.40500, 211.0
4.42000, 192.0
4.43500, 198.0
4.45000, 210.0
4.46500, 196.0
4.48000, 198.0
4.49500, 203.0
4.51000, 192.0
4.52500, 197.0
4.54000, 219.0
4.55500, 192.0
4.57000, 184.0
4.58500, 187.0
4.60000, 182.0
4.61500, 171.0
4.63000, 181.0
4.64500, 188.0
4.66000, 181.0
4.67500, 203.0
4.69000, 198.0
4.70500, 186.0
4.72000, 187.0
4.73500, 190.0
4.75000, 186.0
4.76500, 190.0
4.78000, 209.0
4.79500, 197.0
4.81000, 190.0
4.82500, 183.0
4.84000, 170.0
4.85500, 179.0
4.87000, 194.0
4.88500, 170.0
4.90000, 199.0
4.91500, 187.0
4.93000, 186.0
4.94500, 191.0
4.96000, 163.0
4.97500, 162.0
4.99000, 181.0
5.00500, 178.0
5.02000, 169.0
5.03500, 170.0
5.05000, 177.0
5.06500, 168.0
5.08000, 180.0
5.09500, 172.0
5.11000, 164.0
5.12500, 184.0
5.14000, 202.0
5.15500, 170.0
5.17000, 167.0
5.18500, 151.0
5.20000, 188.0
5.21500, 142.0
5.23000, 173.0
5.24500, 157.0
5.26000, 141.0
5.27500, 174.0
5.29000, 171.0
5.30500, 156.0
5.32000, 161.0
5.33500, 150.0
5.35000, 161.0
5.36500, 164.0
5.38000, 167.0
5.39500, 153.0
5.41000, 158.0
5.42500, 154.0
5.44000, 167.0
5.45500, 152.0
5.47000, 162.0
5.48500, 155.0
5.50000, 163.0
5.51500, 161.0
5.53000, 154.0
5.54500, 177.0
5.56000, 160.0
5.57500, 158.0
5.59000, 159.0
5.60500, 179.0
5.62000, 181.0
5.63500, 169.0
5.65000, 171.0
5.66500, 183.0
5.68000, 186.0
5.69500, 196.0
5.71000, 190.0
5.72500, 265.0
5.74000, 392.0
5.75500, 589.0
5.77000, 1024.0
5.78500, 1754.0
5.80000, 2980.0
5.81500, 4542.0
5.83000, 6580.0
5.84500, 9204.0
5.86000, 11716.0
5.87500, 13714.0
5.89000, 14743.0
5.90500, 14837.0
5.92000, 13654.0
5.93500, 11701.0
5.95000, 9145.0
5.96500, 6614.0
5.98000, 4660.0
5.99500, 2852.0
6.01000, 1700.0
6.02500, 973.0
6.04000, 558.0
6.05500, 344.0
6.07000, 244.0
6.08500, 178.0
6.10000, 139.0
6.11500, 161.0
6.13000, 149.0
6.14500, 159.0
6.16000, 155.0
6.17500, 176.0
6.19000, 146.0
6.20500, 162.0
6.22000, 130.0
6.23500, 145.0
6.25000, 153.0
6.26500, 161.0
6.28000, 157.0
6.29500, 175.0
6.31000, 156.0
6.32500, 201.0
6.34000, 245.0
6.35500, 271.0
6.37000, 381.0
6.38500, 493.0
6.40000, 723.0
6.41500, 886.0
6.43000, 1203.0
6.44500, 1465.0
6.46000, 1727.0
6.47500, 1980.0
6.49000, 1976.0
6.50500, 1990.0
6.52000, 1715.0
6.53500, 1471.0
6.55000, 1162.0
6.56500, 862.0
6.58000, 629.0
6.59500, 437.0
6.61000, 303.0
6.62500, 211.0
6.64000, 148.0
6.65500, 129.0
6.67000, 102.0
6.68500, 103.0
6.70000, 92.0
6.71500, 86.0
6.73000, 104.0
6.74500, 98.0
6.76000, 94.0
6.77500, 95.0
6.79000, 81.0
6.80500, 89.0
6.82000, 95.0
6.83500, 96.0
6.85000, 94.0
6.86500, 105.0
6.88000, 90.0
6.89500, 93.0
6.91000, 97.0
6.92500, 76.0
6.94000, 69.0
6.95500, 77.0
6.97000, 85.0
6.98500, 98.0
7.00000, 106.0
7.01500, 87.0
7.03000, 81.0
7.04500, 92.0
7.06000, 82.0
7.07500, 81.0
7.09000, 82.0
7.10500, 86.0
7.12000, 104.0
7.13500, 77.0
7.15000, 84.0
7.16500, 81.0
7.18000, 68.0
7.19500, 84.0
7.21000, 87.0
7.22500, 86.0
7.24000, 83.0
7.25500, 87.0
7.27000, 65.0
7.28500, 87.0
7.30000, 85.0
7.31500, 106.0
7.33000, 81.0
7.34500, 89.0
7.36000, 83.0
7.37500, 85.0
7.39000, 99.0
7.40500, 87.0
7.42000, 81.0
7.43500, 87.0
7.45000, 69.0
7.46500, 74.0
7.48000, 87.0
7.49500, 78.0
7.51000, 84.0
7.52500, 82.0
7.54000, 95.0
7.55500, 91.0
7.57000, 80.0
7.58500, 88.0
7.60000, 85.0
7.61500, 87.0
7.63000, 82.0
7.64500, 80.0
7.66000, 81.0
7.67500, 73.0
7.69000, 74.0
7.70500, 90.0
7.72000, 73.0
7.73500, 62.0
7.75000, 93.0
7.76500, 86.0
7.78000, 84.0
7.79500, 70.0
7.81000, 69.0
7.82500, 89.0
7.84000, 78.0
7.85500, 91.0
7.87000, 72.0
7.88500, 67.0
7.90000, 79.0
7.91500, 81.0
7.93000, 72.0
7.94500, 83.0
7.96000, 64.0
7.97500, 81.0
7.99000, 85.0
8.00500, 89.0
8.02000, 79.0
8.03500, 74.0
8.05000, 78.0
8.06500, 74.0
8.08000, 71.0
8.09500, 66.0
8.11000, 76.0
8.12500, 78.0
8.14000, 84.0
8.15500, 76.0
8.17000, 90.0
8.18500, 72.0
8.20000, 74.0
8.21500, 70.0
8.23000, 75.0
8.24500, 79.0
8.26000, 75.0
8.27500, 72.0
8.29000, 73.0
8.30500, 82.0
8.32000, 70.0
8.33500, 74.0
8.35000, 76.0
8.36500, 66.0
8.38000, 79.0
8.39500, 67.0
8.41000, 53.0
8.42500, 80.0
8.44000, 83.0
8.45500, 79.0
8.47000, 75.0
8.48500, 75.0
8.50000, 75.0
8.51500, 71.0
8.53000, 73.0
8.54500, 65.0
8.56000, 52.0
8.57500, 71.0
8.59000, 78.0
8.60500, 70.0
8.62000, 74.0
8.63500, 74.0
8.65000, 66.0
8.66500, 77.0
8.68000, 71.0
8.69500, 68.0
8.71000, 80.0
8.72500, 62.0
8.74000, 69.0
8.75500, 65.0
8.77000, 70.0
8.78500, 67.0
8.80000, 66.0
8.81500, 73.0
8.83000, 67.0
8.84500, 64.0
8.86000, 74.0
8.87500, 82.0
8.89000, 68.0
8.90500, 68.0
8.92000, 60.0
8.93500, 59.0
8.95000, 68.0
8.96500, 68.0
8.98000, 60.0
8.99500, 68.0
9.01000, 74.0
9.02500, 65.0
9.04000, 61.0
9.05500, 75.0
9.07000, 58.0
9.08500, 69.0
9.10000, 63.0
9.11500, 67.0
9.13000, 69.0
9.14500, 76.0
9.16000, 64.0
9.17500, 59.0
9.19000, 68.0
9.20500, 57.0
9.22000, 69.0
9.23500, 64.0
9.25000, 70.0
9.26500, 55.0
9.28000, 70.0
9.29500, 68.0
9.31000, 64.0
9.32500, 68.0
9.34000, 55.0
9.35500, 65.0
9.37000, 65.0
9.38500, 71.0
9.40000, 64.0
9.41500, 57.0
9.43000, 61.0
9.44500, 64.0
9.46000, 55.0
9.47500, 55.0
9.49000, 55.0
9.50500, 49.0
9.52000, 52.0
9.53500, 66.0
9.55000, 68.0
9.56500, 68.0
9.58000, 63.0
9.59500, 67.0
9.61000, 64.0
9.62500, 56.0
9.64000, 71.0
9.65500, 63.0
9.67000, 64.0
9.68500, 61.0
9.70000, 60.0
9.71500, 56.0
9.73000, 53.0
9.74500, 58.0
9.76000, 62.0
9.77500, 57.0
9.79000, 55.0
9.80500, 55.0
9.82000, 64.0
9.83500, 60.0
9.85000, 55.0
9.86500, 63.0
9.88000, 43.0
9.89500, 51.0
9.91000, 58.0
9.92500, 52.0
9.94000, 63.0
9.95500, 59.0
9.97000, 45.0
9.98500, 53.0
10.00000, 50.0
10.01500, 58.0
10.03000, 59.0
10.04500, 57.0
10.06000, 52.0
10.07500, 54.0
10.09000, 62.0
10.10500, 48.0
10.12000, 41.0
10.13500, 58.0
10.15000, 54.0
10.16500, 56.0
10.18000, 48.0
10.19500, 51.0
10.21000, 60.0
10.22500, 51.0
10.24000, 52.0
10.25500, 49.0
10.27000, 56.0
10.28500, 61.0
10.30000, 40.0
10.31500, 45.0
10.33000, 45.0
10.34500, 46.0
10.36000, 43.0
10.37500, 59.0
10.39000, 50.0
10.40500, 48.0
10.42000, 53.0
10.43500, 50.0
10.45000, 44.0
10.46500, 45.0
10.48000, 46.0
10.49500, 58.0
10.51000, 50.0
10.52500, 46.0
10.54000, 46.0
10.55500, 42.0
10.57000, 50.0
10.58500, 45.0
10.60000, 46.0
10.61500, 37.0
10.63000, 52.0
10.64500, 46.0
10.66000, 45.0
10.67500, 46.0
10.69000, 52.0
10.70500, 46.0
10.72000, 50.0
10.73500, 53.0
10.75000, 56.0
10.76500, 34.0
10.78000, 38.0
10.79500, 44.0
10.81000, 50.0
10.82500, 44.0
10.84000, 39.0
10.85500, 45.0
10.87000, 39.0
10.88500, 45.0
10.90000, 42.0
10.91500, 40.0
10.93000, 42.0
10.94500, 41.0
10.96000, 45.0
10.97500, 43.0
10.99000, 44.0
11.00500, 39.0
11.02000, 40.0
11.03500, 47.0
11.05000, 44.0
11.06500, 42.0
11.08000, 41.0
11.09500, 43.0
11.11000, 35.0
11.12500, 37.0
11.14000, 33.0
11.15500, 45.0
11.17000, 37.0
11.18500, 50.0
11.20000, 39.0
11.21500, 39.0
11.23000, 44.0
11.24500, 48.0
11.26000, 36.0
11.27500, 45.0
11.29000, 45.0
11.30500, 45.0
11.32000, 41.0
11.33500, 35.0
11.35000, 33.0
11.36500, 40.0
11.38000, 39.0
11.39500, 44.0
11.41000, 43.0
11.42500, 37.0
11.44000, 37.0
11.45500, 44.0
11.47000, 39.0
11.48500, 47.0
11.50000, 39.0
11.51500, 37.0
11.53000, 39.0
11.54500, 33.0
11.56000, 29.0
11.57500, 33.0
11.59000, 46.0
11.60500, 40.0
11.62000, 40.0
11.63500, 46.0
11.65000, 30.0
11.66500, 39.0
11.68000, 47.0
11.69500, 36.0
11.71000, 56.0
11.72500, 53.0
11.74000, 49.0
11.75500, 51.0
11.77000, 67.0
11.78500, 62.0
11.80000, 53.0
11.81500, 56.0
11.83000, 62.0
11.84500, 56.0
11.86000, 48.0
11.87500, 52.0
11.89000, 43.0
11.90500, 43.0
11.92000, 37.0
11.93500, 39.0
11.95000, 39.0
11.96500, 36.0
11.98000, 38.0
11.99500, 42.0
12.01000, 33.0
12.02500, 39.0
12.04000, 35.0
12.05500, 38.0
12.07000, 36.0
12.08500, 42.0
12.10000, 38.0
12.11500, 36.0
12.13000, 43.0
12.14500, 35.0
12.16000, 34.0
12.17500, 34.0
12.19000, 27.0
12.20500, 30.0
12.22000, 34.0
12.23500, 30.0
12.25000, 33.0
12.26500, 40.0
12.28000, 29.0
12.29500, 45.0
12.31000, 34.0
12.32500, 40.0
12.34000, 30.0
12.35500, 37.0
12.37000, 38.0
12.38500, 48.0
12.40000, 49.0
12.41500, 28.0
12.43000, 27.0
12.44500, 38.0
12.46000, 35.0
12.47500, 24.0
12.49000, 27.0
12.50500, 42.0
12.52000, 29.0
12.53500, 33.0
12.55000, 33.0
12.56500, 27.0
12.58000, 29.0
12.59500, 29.0
12.61000, 37.0
12.62500, 32.0
12.64000, 38.0
12.65500, 26.0
12.67000, 34.0
12.68500, 33.0
12.70000, 27.0
12.71500, 31.0
12.73000, 32.0
12.74500, 35.0
12.76000, 19.0
12.77500, 26.0
12.79000, 47.0
12.80500, 29.0
12.82000, 26.0
12.83500, 18.0
12.85000, 29.0
12.86500, 33.0
12.88000, 41.0
12.89500, 27.0
12.91000, 30.0
12.92500, 28.0
12.94000, 13.0
12.95500, 33.0
12.97000, 25.0
12.98500, 31.0
13.00000, 29.0
13.01500, 28.0
13.03000, 41.0
13.04500, 31.0
13.06000, 26.0
13.07500, 21.0
13.09000, 23.0
13.10500, 19.0
13.12000, 25.0
13.13500, 25.0
13.15000, 23.0
13.16500, 17.0
13.18000, 30.0
13.19500, 27.0
13.21000, 25.0
13.22500, 23.0
13.24000, 21.0
13.25500, 34.0
13.27000, 22.0
13.28500, 16.0
13.30000, 23.0
13.31500, 20.0
13.33000, 22.0
13.34500, 31.0
13.36000, 25.0
13.37500, 27.0
13.39000, 18.0
13.40500, 19.0
13.42000, 25.0
13.43500, 23.0
13.45000, 29.0
13.46500, 23.0
13.48000, 27.0
13.49500, 21.0
13.51000, 24.0
13.52500, 23.0
13.54000, 24.0
13.55500, 15.0
13.57000, 21.0
13.58500, 26.0
13.60000, 24.0
13.61500, 22.0
13.63000, 19.0
13.64500, 23.0
13.66000, 28.0
13.67500, 27.0
13.69000, 18.0
13.70500, 13.0
13.72000, 25.0
13.73500, 27.0
13.75000, 23.0
13.76500, 24.0
13.78000, 21.0
13.79500, 29.0
13.81000, 17.0
13.82500, 22.0
13.84000, 20.0
13.85500, 18.0
13.87000, 20.0
13.88500, 23.0
13.90000, 21.0
13.91500, 18.0
13.93000, 22.0
13.94500, 11.0
13.96000, 17.0
13.97500, 21.0
13.99000, 22.0
14.00500, 21.0
14.02000, 25.0
14.03500, 17.0
14.05000, 18.0
14.06500, 16.0
14.08000, 20.0
14.09500, 22.0
14.11000, 24.0
14.12500, 19.0
14.14000, 12.0
14.15500, 23.0
14.17000, 19.0
14.18500, 12.0
14.20000, 20.0
14.21500, 16.0
14.23000, 21.0
14.24500, 17.0
14.26000, 16.0
14.27500, 20.0
14.29000, 22.0
14.30500, 15.0
14.32000, 21.0
14.33500, 17.0
14.35000, 12.0
14.36500, 19.0
14.38000, 15.0
14.39500, 19.0
14.41000, 18.0
14.42500, 19.0
14.44000, 13.0
14.45500, 17.0
14.47000, 14.0
14.48500, 23.0
14.50000, 15.0
14.51500, 15.0
14.53000, 18.0
14.54500, 16.0
14.56000, 19.0
14.57500, 13.0
14.59000, 16.0
14.60500, 17.0
14.62000, 17.0
14.63500, 12.0
14.65000, 17.0
14.66500, 18.0
14.68000, 12.0
14.69500, 16.0
14.71000, 20.0
14.72500, 14.0
14.74000, 11.0
14.75500, 15.0
14.77000, 18.0
14.78500, 13.0
14.80000, 13.0
14.81500, 13.0
14.83000, 16.0
14.84500, 10.0
14.86000, 14.0
14.87500, 11.0
14.89000, 16.0
14.90500, 16.0
14.92000, 18.0
14.93500, 18.0
14.95000, 15.0
14.96500, 16.0
14.98000, 15.0
14.99500, 10.0
15.01000, 15.0
15.02500, 13.0
15.04000, 17.0
15.05500, 15.0
15.07000, 14.0
15.08500, 11.0
15.10000, 14.0
15.11500, 10.0
15.13000, 9.0
15.14500, 14.0
15.16000, 13.0
15.17500, 12.0
15.19000, 12.0
15.20500, 12.0
15.22000, 22.0
15.23500, 10.0
15.25000, 10.0
15.26500, 10.0
15.28000, 13.0
15.29500, 13.0
15.31000, 11.0
15.32500, 8.0
15.34000, 14.0
15.35500, 13.0
15.37000, 12.0
15.38500, 16.0
15.40000, 11.0
15.41500, 13.0
15.43000, 13.0
15.44500, 10.0
15.46000, 9.0
15.47500, 8.0
15.49000, 15.0
15.50500, 9.0
15.52000, 8.0
15.53500, 6.0
15.55000, 12.0
15.56500, 13.0
15.58000, 14.0
15.59500, 9.0
15.61000, 8.0
15.62500, 14.0
15.64000, 10.0
15.65500, 10.0
15.67000, 8.0
15.68500, 9.0
15.70000, 15.0
15.71500, 12.0
15.73000, 10.0
15.74500, 14.0
15.76000, 9.0
15.77500, 8.0
15.79000, 8.0
15.80500, 7.0
15.82000, 14.0
15.83500, 13.0
15.85000, 8.0
15.86500, 8.0
15.88000, 12.0
15.89500, 11.0
15.91000, 6.0
15.92500, 10.0
15.94000, 6.0
15.95500, 6.0
15.97000, 14.0
15.98500, 11.0
16.00000, 9.0
16.01500, 9.0
16.03000, 9.0
16.04500, 10.0
16.06000, 10.0
16.07500, 10.0
16.09000, 9.0
16.10500, 9.0
16.12000, 9.0
16.13500, 9.0
16.15000, 10.0
16.16500, 5.0
16.18000, 9.0
16.19500, 7.0
16.21000, 11.0
16.22500, 11.0
16.24000, 14.0
16.25500, 7.0
16.27000, 12.0
16.28500, 6.0
16.30000, 7.0
16.31500, 9.0
16.33000, 9.0
16.34500, 8.0
16.36000, 10.0
16.37500, 7.0
16.39000, 10.0
16.40500, 5.0
16.42000, 8.0
16.43500, 8.0
16.45000, 7.0
16.46500, 8.0
16.48000, 6.0
16.49500, 9.0
16.51000, 6.0
16.52500, 7.0
16.54000, 12.0
16.55500, 7.0
16.57000, 9.0
16.58500, 9.0
16.60000, 7.0
16.61500, 10.0
16.63000, 3.0
16.64500, 6.0
16.66000, 10.0
16.67500, 6.0
16.69000, 8.0
16.70500, 8.0
16.72000, 4.0
16.73500, 11.0
16.75000, 9.0
16.76500, 6.0
16.78000, 6.0
16.79500, 9.0
16.81000, 5.0
16.82500, 9.0
16.84000, 6.0
16.85500, 13.0
16.87000, 5.0
16.88500, 6.0
16.90000, 7.0
16.91500, 6.0
16.93000, 6.0
16.94500, 7.0
16.96000, 6.0
16.97500, 6.0
16.99000, 9.0
17.00500, 6.0
17.02000, 6.0
17.03500, 5.0
17.05000, 4.0
17.06500, 9.0
17.08000, 10.0
17.09500, 6.0
17.11000, 6.0
17.12500, 4.0
17.14000, 5.0
17.15500, 5.0
17.17000, 6.0
17.18500, 4.0
17.20000, 4.0
17.21500, 3.0
17.23000, 9.0
17.24500, 2.0
17.26000, 6.0
17.27500, 4.0
17.29000, 5.0
17.30500, 7.0
17.32000, 4.0
17.33500, 5.0
17.35000, 4.0
17.36500, 4.0
17.38000, 8.0
17.39500, 5.0
17.41000, 5.0
17.42500, 4.0
17.44000, 5.0
17.45500, 4.0
17.47000, 8.0
17.48500, 5.0
17.50000, 5.0
17.51500, 7.0
17.53000, 6.0
17.54500, 9.0
17.56000, 4.0
17.57500, 6.0
17.59000, 4.0
17.60500, 2.0
17.62000, 3.0
17.63500, 5.0
17.65000, 5.0
17.66500, 5.0
17.68000, 6.0
17.69500, 2.0
17.71000, 7.0
17.72500, 4.0
17.74000, 5.0
17.75500, 6.0
17.77000, 5.0
17.78500, 6.0
17.80000, 2.0
17.81500, 3.0
17.83000, 5.0
17.84500, 2.0
17.86000, 3.0
17.87500, 3.0
17.89000, 3.0
17.90500, 6.0
17.92000, 4.0
17.93500, 6.0
17.95000, 4.0
17.96500, 3.0
17.98000, 2.0
17.99500, 4.0
18.01000, 3.0
18.02500, 6.0
18.04000, 6.0
18.05500, 5.0
18.07000, 2.0
18.08500, 3.0
18.10000, 2.0
18.11500, 4.0
18.13000, 1.0
18.14500, 3.0
18.16000, 2.0
18.17500, 4.0
18.19000, 3.0
18.20500, 7.0
18.22000, 2.0
18.23500, 2.0
18.25000, 3.0
18.26500, 5.0
18.28000, 3.0
18.29500, 2.0
18.31000, 4.0
18.32500, 4.0
18.34000, 3.0
18.35500, 3.0
18.37000, 0.0
18.38500, 7.0
18.40000, 3.0
18.41500, 1.0
18.43000, 1.0
18.44500, 4.0
18.46000, 0.0
18.47500, 3.0
18.49000, 3.0
18.50500, 1.0
18.52000, 4.0
18.53500, 2.0
18.55000, 1.0
18.56500, 3.0
18.58000, 2.0
18.59500, 1.0
18.61000, 3.0
18.62500, 4.0
18.64000, 1.0
18.65500, 1.0
18.67000, 2.0
18.68500, 0.0
18.70000, 4.0
18.71500, 0.0
18.73000, 3.0
18.74500, 0.0
18.76000, 2.0
18.77500, 6.0
18.79000, 6.0
18.80500, 1.0
18.82000, 2.0
18.83500, 0.0
18.85000, 5.0
18.86500, 2.0
18.88000, 0.0
18.89500, 2.0
18.91000, 3.0
18.92500, 0.0
18.94000, 0.0
18.95500, 2.0
18.97000, 2.0
18.98500, 1.0
19.00000, 2.0
19.01500, 3.0
19.03000, 2.0
19.04500, 2.0
19.06000, 0.0
19.07500, 1.0
19.09000, 2.0
19.10500, 4.0
19.12000, 2.0
19.13500, 2.0
19.15000, 2.0
19.16500, 1.0
19.18000, 1.0
19.19500, 3.0
19.21000, 0.0
19.22500, 2.0
19.24000, 1.0
19.25500, 3.0
19.27000, 1.0
19.28500, 2.0
19.30000, 0.0
19.31500, 0.0
19.33000, 1.0
19.34500, 3.0
19.36000, 1.0
19.37500, 1.0
19.39000, 1.0
19.40500, 0.0
19.42000, 2.0
19.43500, 0.0
19.45000, 1.0
19.46500, 3.0
19.48000, 1.0
19.49500, 0.0
19.51000, 0.0
19.52500, 2.0
19.54000, 1.0
19.55500, 1.0
19.57000, 1.0
19.58500, 1.0
19.60000, 1.0
19.61500, 2.0
19.63000, 0.0
19.64500, 0.0
19.66000, 0.0
19.67500, 0.0
19.69000, 0.0
19.70500, 0.0
19.72000, 1.0
19.73500, 0.0
19.75000, 1.0
19.76500, 1.0
19.78000, 0.0
19.79500, 0.0
19.81000, 1.0
19.82500, 0.0
19.84000, 0.0
19.85500, 0.0
19.87000, 1.0
19.88500, 0.0
19.90000, 1.0
19.91500, 0.0
19.93000, 0.0
19.94500, 0.0
19.96000, 0.0
19.97500, 0.0
19.99000, 0.0
20.00500, 0.0
20.02000, 1.0
20.03500, 0.0
20.05000, 0.0
20.06500, 0.0
20.08000, 0.0
20.09500, 0.0
20.11000, 0.0
20.12500, 0.0
20.14000, 0.0
20.15500, 0.0
20.17000, 0.0
20.18500, 0.0
20.20000, 0.0
20.21500, 0.0
20.23000, 0.0
20.24500, 0.0
20.26000, 0.0
20.27500, 0.0
#ENDOFDATA   :