File: dtsa2/detectors/2-FEI Sirion/Oxford p4 05eV 4K.txt
#FORMAT      : EMSA/MAS Spectral Data File
#VERSION     : 1.0
#TITLE       : 4096-5eV-s5-p4
#DATE        : 29-MAY-2014
#TIME        : 15:07
#OWNER       :
#NPOINTS     : 4096.0
#NCOLUMNS    : 1.0
#XUNITS      : keV
#YUNITS      : counts
#DATATYPE    : XY
#XPERCHAN    : 0.005
#OFFSET      : -0.2
#SIGNALTYPE  : EDS
#CHOFFSET    : 40.0
#LIVETIME    : 100.289
#REALTIME    : 137.402
#BEAMKV      : 20.0
#PROBECUR    : 0.0
#MAGCAM      : 3500.0
#XTILTSTGE   : 0.0
#AZIMANGLE   : 0.0
#ELEVANGLE   : 35.0
#XPOSITION mm: -3.1130
#YPOSITION mm: 1.3240
#ZPOSITION mm: 5.0130
##OXINSTPT   : 4
##OXINSTSTROB: 48.07
##OXINSTELEMS: 25,6,13,14
##OXINSTLABEL: 25, 5.899, Mn
##OXINSTLABEL: 25, 6.490, Mn
##OXINSTLABEL: 25, 0.636, Mn
##OXINSTLABEL: 25, 0.567, Mn
##OXINSTLABEL: 6, 0.277, C
##OXINSTLABEL: 13, 1.487, Al
##OXINSTLABEL: 14, 1.740, Si
#SPECTRUM    : Spectral Data Starts Here
-0.20000, 0.0
-0.18500, 0.0
-0.17000, 0.0
-0.15500, 0.0
-0.14000, 0.0
-0.12500, 0.0
-0.11000, 0.0
-0.09500, 0.0
-0.08000, 0.0
-0.06500, 2.0
-0.05000, 20.0
-0.03500, 129.0
-0.02000, 440.0
-0.00500, 1091.0
0.01000, 1606.0
0.02500, 1913.0
0.04000, 2027.0
0.05500, 1636.0
0.07000, 877.0
0.08500, 441.0
0.10000, 294.0
0.11500, 294.0
0.13000, 299.0
0.14500, 310.0
0.16000, 332.0
0.17500, 330.0
0.19000, 346.0
0.20500, 439.0
0.22000, 626.0
0.23500, 1008.0
0.25000, 1577.0
0.26500, 2178.0
0.28000, 2245.0
0.29500, 1779.0
0.31000, 1073.0
0.32500, 639.0
0.34000, 534.0
0.35500, 530.0
0.37000, 629.0
0.38500, 655.0
0.40000, 761.0
0.41500, 904.0
0.43000, 1030.0
0.44500, 1248.0
0.46000, 1492.0
0.47500, 1827.0
0.49000, 2694.0
0.50500, 4184.0
0.52000, 6591.0
0.53500, 9369.0
0.55000, 11392.0
0.56500, 11423.0
0.58000, 10721.0
0.59500, 12126.0
0.61000, 16300.0
0.62500, 21757.0
0.64000, 22698.0
0.65500, 17798.0
0.67000, 10506.0
0.68500, 4811.0
0.70000, 1958.0
0.71500, 960.0
0.73000, 659.0
0.74500, 535.0
0.76000, 491.0
0.77500, 462.0
0.79000, 451.0
0.80500, 447.0
0.82000, 469.0
0.83500, 471.0
0.85000, 463.0
0.86500, 501.0
0.88000, 511.0
0.89500, 502.0
0.91000, 533.0
0.92500, 579.0
0.94000, 569.0
0.95500, 572.0
0.97000, 601.0
0.98500, 621.0
1.00000, 637.0
1.01500, 638.0
1.03000, 667.0
1.04500, 715.0
1.06000, 760.0
1.07500, 743.0
1.09000, 739.0
1.10500, 816.0
1.12000, 819.0
1.13500, 820.0
1.15000, 849.0
1.16500, 897.0
1.18000, 905.0
1.19500, 970.0
1.21000, 960.0
1.22500, 931.0
1.24000, 983.0
1.25500, 1050.0
1.27000, 1030.0
1.28500, 1062.0
1.30000, 1034.0
1.31500, 1078.0
1.33000, 1065.0
1.34500, 1051.0
1.36000, 1101.0
1.37500, 1053.0
1.39000, 1136.0
1.40500, 1160.0
1.42000, 1135.0
1.43500, 1208.0
1.45000, 1272.0
1.46500, 1364.0
1.48000, 1470.0
1.49500, 1421.0
1.51000, 1439.0
1.52500, 1378.0
1.54000, 1257.0
1.55500, 1249.0
1.57000, 1244.0
1.58500, 1226.0
1.60000, 1263.0
1.61500, 1251.0
1.63000, 1191.0
1.64500, 1305.0
1.66000, 1228.0
1.67500, 1300.0
1.69000, 1262.0
1.70500, 1362.0
1.72000, 1354.0
1.73500, 1365.0
1.75000, 1382.0
1.76500, 1405.0
1.78000, 1382.0
1.79500, 1364.0
1.81000, 1338.0
1.82500, 1354.0
1.84000, 1320.0
1.85500, 1280.0
1.87000, 1286.0
1.88500, 1318.0
1.90000, 1304.0
1.91500, 1300.0
1.93000, 1303.0
1.94500, 1307.0
1.96000, 1327.0
1.97500, 1331.0
1.99000, 1394.0
2.00500, 1297.0
2.02000, 1304.0
2.03500, 1350.0
2.05000, 1338.0
2.06500, 1365.0
2.08000, 1339.0
2.09500, 1303.0
2.11000, 1378.0
2.12500, 1358.0
2.14000, 1359.0
2.15500, 1381.0
2.17000, 1344.0
2.18500, 1350.0
2.20000, 1368.0
2.21500, 1396.0
2.23000, 1448.0
2.24500, 1387.0
2.26000, 1403.0
2.27500, 1387.0
2.29000, 1371.0
2.30500, 1380.0
2.32000, 1435.0
2.33500, 1373.0
2.35000, 1415.0
2.36500, 1379.0
2.38000, 1375.0
2.39500, 1417.0
2.41000, 1398.0
2.42500, 1437.0
2.44000, 1339.0
2.45500, 1395.0
2.47000, 1378.0
2.48500, 1376.0
2.50000, 1392.0
2.51500, 1392.0
2.53000, 1395.0
2.54500, 1372.0
2.56000, 1292.0
2.57500, 1354.0
2.59000, 1366.0
2.60500, 1334.0
2.62000, 1320.0
2.63500, 1366.0
2.65000, 1337.0
2.66500, 1278.0
2.68000, 1376.0
2.69500, 1329.0
2.71000, 1323.0
2.72500, 1320.0
2.74000, 1364.0
2.75500, 1361.0
2.77000, 1316.0
2.78500, 1282.0
2.80000, 1295.0
2.81500, 1264.0
2.83000, 1330.0
2.84500, 1309.0
2.86000, 1308.0
2.87500, 1281.0
2.89000, 1276.0
2.90500, 1311.0
2.92000, 1318.0
2.93500, 1315.0
2.95000, 1275.0
2.96500, 1286.0
2.98000, 1216.0
2.99500, 1258.0
3.01000, 1275.0
3.02500, 1301.0
3.04000, 1236.0
3.05500, 1235.0
3.07000, 1220.0
3.08500, 1241.0
3.10000, 1242.0
3.11500, 1206.0
3.13000, 1205.0
3.14500, 1220.0
3.16000, 1190.0
3.17500, 1212.0
3.19000, 1170.0
3.20500, 1194.0
3.22000, 1221.0
3.23500, 1207.0
3.25000, 1191.0
3.26500, 1174.0
3.28000, 1180.0
3.29500, 1179.0
3.31000, 1187.0
3.32500, 1165.0
3.34000, 1214.0
3.35500, 1126.0
3.37000, 1144.0
3.38500, 1139.0
3.40000, 1126.0
3.41500, 1137.0
3.43000, 1120.0
3.44500, 1166.0
3.46000, 1096.0
3.47500, 1111.0
3.49000, 1127.0
3.50500, 1104.0
3.52000, 1085.0
3.53500, 1118.0
3.55000, 1114.0
3.56500, 1139.0
3.58000, 1072.0
3.59500, 1117.0
3.61000, 1079.0
3.62500, 1107.0
3.64000, 1070.0
3.65500, 1041.0
3.67000, 1087.0
3.68500, 1079.0
3.70000, 1049.0
3.71500, 1034.0
3.73000, 1079.0
3.74500, 1027.0
3.76000, 1003.0
3.77500, 1081.0
3.79000, 1038.0
3.80500, 1051.0
3.82000, 1064.0
3.83500, 1028.0
3.85000, 998.0
3.86500, 1012.0
3.88000, 970.0
3.89500, 1006.0
3.91000, 1037.0
3.92500, 992.0
3.94000, 991.0
3.95500, 973.0
3.97000, 986.0
3.98500, 983.0
4.00000, 985.0
4.01500, 985.0
4.03000, 993.0
4.04500, 962.0
4.06000, 985.0
4.07500, 1046.0
4.09000, 1109.0
4.10500, 1131.0
4.12000, 1139.0
4.13500, 1241.0
4.15000, 1182.0
4.16500, 1188.0
4.18000, 1193.0
4.19500, 1111.0
4.21000, 1104.0
4.22500, 1065.0
4.24000, 993.0
4.25500, 930.0
4.27000, 901.0
4.28500, 932.0
4.30000, 938.0
4.31500, 897.0
4.33000, 885.0
4.34500, 892.0
4.36000, 854.0
4.37500, 922.0
4.39000, 909.0
4.40500, 889.0
4.42000, 867.0
4.43500, 856.0
4.45000, 887.0
4.46500, 863.0
4.48000, 925.0
4.49500, 842.0
4.51000, 875.0
4.52500, 869.0
4.54000, 855.0
4.55500, 862.0
4.57000, 848.0
4.58500, 885.0
4.60000, 826.0
4.61500, 836.0
4.63000, 824.0
4.64500, 852.0
4.66000, 806.0
4.67500, 846.0
4.69000, 841.0
4.70500, 804.0
4.72000, 863.0
4.73500, 838.0
4.75000, 849.0
4.76500, 880.0
4.78000, 837.0
4.79500, 836.0
4.81000, 818.0
4.82500, 771.0
4.84000, 796.0
4.85500, 772.0
4.87000, 806.0
4.88500, 794.0
4.90000, 781.0
4.91500, 816.0
4.93000, 791.0
4.94500, 818.0
4.96000, 792.0
4.97500, 787.0
4.99000, 764.0
5.00500, 825.0
5.02000, 782.0
5.03500, 734.0
5.05000, 771.0
5.06500, 766.0
5.08000, 752.0
5.09500, 780.0
5.11000, 768.0
5.12500, 779.0
5.14000, 723.0
5.15500, 722.0
5.17000, 755.0
5.18500, 771.0
5.20000, 718.0
5.21500, 723.0
5.23000, 714.0
5.24500, 722.0
5.26000, 702.0
5.27500, 743.0
5.29000, 719.0
5.30500, 710.0
5.32000, 726.0
5.33500, 666.0
5.35000, 733.0
5.36500, 695.0
5.38000, 715.0
5.39500, 710.0
5.41000, 686.0
5.42500, 739.0
5.44000, 688.0
5.45500, 641.0
5.47000, 698.0
5.48500, 638.0
5.50000, 683.0
5.51500, 699.0
5.53000, 679.0
5.54500, 686.0
5.56000, 703.0
5.57500, 722.0
5.59000, 756.0
5.60500, 689.0
5.62000, 755.0
5.63500, 735.0
5.65000, 747.0
5.66500, 780.0
5.68000, 811.0
5.69500, 868.0
5.71000, 1004.0
5.72500, 1252.0
5.74000, 1885.0
5.75500, 2953.0
5.77000, 4911.0
5.78500, 8351.0
5.80000, 13560.0
5.81500, 20898.0
5.83000, 29694.0
5.84500, 40225.0
5.86000, 50190.0
5.87500, 57681.0
5.89000, 62221.0
5.90500, 61990.0
5.92000, 57444.0
5.93500, 49530.0
5.95000, 39284.0
5.96500, 29431.0
5.98000, 20360.0
5.99500, 13215.0
6.01000, 8203.0
6.02500, 4855.0
6.04000, 2888.0
6.05500, 1707.0
6.07000, 1199.0
6.08500, 904.0
6.10000, 750.0
6.11500, 723.0
6.13000, 665.0
6.14500, 689.0
6.16000, 678.0
6.17500, 727.0
6.19000, 690.0
6.20500, 687.0
6.22000, 679.0
6.23500, 732.0
6.25000, 709.0
6.26500, 725.0
6.28000, 765.0
6.29500, 763.0
6.31000, 792.0
6.32500, 905.0
6.34000, 1090.0
6.35500, 1281.0
6.37000, 1790.0
6.38500, 2228.0
6.40000, 3263.0
6.41500, 4199.0
6.43000, 5354.0
6.44500, 6511.0
6.46000, 7600.0
6.47500, 8332.0
6.49000, 8495.0
6.50500, 8208.0
6.52000, 7482.0
6.53500, 6475.0
6.55000, 5193.0
6.56500, 3874.0
6.58000, 2903.0
6.59500, 1978.0
6.61000, 1396.0
6.62500, 950.0
6.64000, 741.0
6.65500, 586.0
6.67000, 484.0
6.68500, 466.0
6.70000, 401.0
6.71500, 392.0
6.73000, 394.0
6.74500, 412.0
6.76000, 445.0
6.77500, 352.0
6.79000, 396.0
6.80500, 416.0
6.82000, 438.0
6.83500, 405.0
6.85000, 387.0
6.86500, 381.0
6.88000, 377.0
6.89500, 413.0
6.91000, 435.0
6.92500, 415.0
6.94000, 380.0
6.95500, 405.0
6.97000, 397.0
6.98500, 386.0
7.00000, 407.0
7.01500, 413.0
7.03000, 407.0
7.04500, 387.0
7.06000, 447.0
7.07500, 406.0
7.09000, 419.0
7.10500, 435.0
7.12000, 398.0
7.13500, 392.0
7.15000, 422.0
7.16500, 427.0
7.18000, 419.0
7.19500, 406.0
7.21000, 410.0
7.22500, 381.0
7.24000, 364.0
7.25500, 383.0
7.27000, 378.0
7.28500, 402.0
7.30000, 401.0
7.31500, 390.0
7.33000, 373.0
7.34500, 391.0
7.36000, 395.0
7.37500, 349.0
7.39000, 365.0
7.40500, 376.0
7.42000, 381.0
7.43500, 407.0
7.45000, 369.0
7.46500, 358.0
7.48000, 374.0
7.49500, 362.0
7.51000, 386.0
7.52500, 386.0
7.54000, 388.0
7.55500, 365.0
7.57000, 409.0
7.58500, 393.0
7.60000, 365.0
7.61500, 380.0
7.63000, 354.0
7.64500, 392.0
7.66000, 379.0
7.67500, 388.0
7.69000, 385.0
7.70500, 353.0
7.72000, 330.0
7.73500, 357.0
7.75000, 358.0
7.76500, 364.0
7.78000, 357.0
7.79500, 356.0
7.81000, 369.0
7.82500, 387.0
7.84000, 360.0
7.85500, 370.0
7.87000, 356.0
7.88500, 348.0
7.90000, 348.0
7.91500, 377.0
7.93000, 374.0
7.94500, 354.0
7.96000, 367.0
7.97500, 362.0
7.99000, 392.0
8.00500, 349.0
8.02000, 332.0
8.03500, 362.0
8.05000, 368.0
8.06500, 344.0
8.08000, 366.0
8.09500, 347.0
8.11000, 348.0
8.12500, 359.0
8.14000, 361.0
8.15500, 363.0
8.17000, 324.0
8.18500, 352.0
8.20000, 322.0
8.21500, 345.0
8.23000, 370.0
8.24500, 338.0
8.26000, 328.0
8.27500, 330.0
8.29000, 356.0
8.30500, 335.0
8.32000, 320.0
8.33500, 369.0
8.35000, 329.0
8.36500, 344.0
8.38000, 352.0
8.39500, 317.0
8.41000, 329.0
8.42500, 349.0
8.44000, 358.0
8.45500, 344.0
8.47000, 345.0
8.48500, 330.0
8.50000, 320.0
8.51500, 325.0
8.53000, 299.0
8.54500, 317.0
8.56000, 345.0
8.57500, 314.0
8.59000, 329.0
8.60500, 350.0
8.62000, 309.0
8.63500, 303.0
8.65000, 292.0
8.66500, 322.0
8.68000, 316.0
8.69500, 292.0
8.71000, 319.0
8.72500, 329.0
8.74000, 320.0
8.75500, 319.0
8.77000, 313.0
8.78500, 311.0
8.80000, 312.0
8.81500, 302.0
8.83000, 328.0
8.84500, 313.0
8.86000, 332.0
8.87500, 294.0
8.89000, 295.0
8.90500, 306.0
8.92000, 324.0
8.93500, 310.0
8.95000, 313.0
8.96500, 309.0
8.98000, 297.0
8.99500, 320.0
9.01000, 326.0
9.02500, 298.0
9.04000, 285.0
9.05500, 290.0
9.07000, 288.0
9.08500, 293.0
9.10000, 312.0
9.11500, 284.0
9.13000, 302.0
9.14500, 294.0
9.16000, 304.0
9.17500, 283.0
9.19000, 317.0
9.20500, 283.0
9.22000, 291.0
9.23500, 304.0
9.25000, 293.0
9.26500, 286.0
9.28000, 291.0
9.29500, 285.0
9.31000, 297.0
9.32500, 294.0
9.34000, 275.0
9.35500, 282.0
9.37000, 264.0
9.38500, 292.0
9.40000, 293.0
9.41500, 264.0
9.43000, 291.0
9.44500, 283.0
9.46000, 300.0
9.47500, 273.0
9.49000, 278.0
9.50500, 306.0
9.52000, 267.0
9.53500, 279.0
9.55000, 282.0
9.56500, 265.0
9.58000, 270.0
9.59500, 278.0
9.61000, 265.0
9.62500, 269.0
9.64000, 257.0
9.65500, 278.0
9.67000, 277.0
9.68500, 276.0
9.70000, 273.0
9.71500, 256.0
9.73000, 278.0
9.74500, 274.0
9.76000, 266.0
9.77500, 253.0
9.79000, 249.0
9.80500, 252.0
9.82000, 268.0
9.83500, 268.0
9.85000, 251.0
9.86500, 254.0
9.88000, 282.0
9.89500, 266.0
9.91000, 266.0
9.92500, 269.0
9.94000, 265.0
9.95500, 264.0
9.97000, 246.0
9.98500, 275.0
10.00000, 255.0
10.01500, 260.0
10.03000, 266.0
10.04500, 238.0
10.06000, 253.0
10.07500, 250.0
10.09000, 256.0
10.10500, 256.0
10.12000, 255.0
10.13500, 256.0
10.15000, 252.0
10.16500, 241.0
10.18000, 244.0
10.19500, 258.0
10.21000, 236.0
10.22500, 257.0
10.24000, 245.0
10.25500, 251.0
10.27000, 238.0
10.28500, 254.0
10.30000, 248.0
10.31500, 253.0
10.33000, 239.0
10.34500, 236.0
10.36000, 240.0
10.37500, 238.0
10.39000, 239.0
10.40500, 243.0
10.42000, 219.0
10.43500, 226.0
10.45000, 244.0
10.46500, 232.0
10.48000, 242.0
10.49500, 229.0
10.51000, 225.0
10.52500, 226.0
10.54000, 239.0
10.55500, 219.0
10.57000, 226.0
10.58500, 224.0
10.60000, 225.0
10.61500, 227.0
10.63000, 214.0
10.64500, 221.0
10.66000, 221.0
10.67500, 217.0
10.69000, 209.0
10.70500, 208.0
10.72000, 250.0
10.73500, 219.0
10.75000, 225.0
10.76500, 212.0
10.78000, 196.0
10.79500, 211.0
10.81000, 212.0
10.82500, 222.0
10.84000, 232.0
10.85500, 209.0
10.87000, 219.0
10.88500, 226.0
10.90000, 205.0
10.91500, 207.0
10.93000, 199.0
10.94500, 206.0
10.96000, 209.0
10.97500, 191.0
10.99000, 198.0
11.00500, 218.0
11.02000, 202.0
11.03500, 183.0
11.05000, 208.0
11.06500, 225.0
11.08000, 200.0
11.09500, 213.0
11.11000, 193.0
11.12500, 183.0
11.14000, 225.0
11.15500, 212.0
11.17000, 204.0
11.18500, 196.0
11.20000, 203.0
11.21500, 202.0
11.23000, 187.0
11.24500, 208.0
11.26000, 182.0
11.27500, 195.0
11.29000, 198.0
11.30500, 220.0
11.32000, 198.0
11.33500, 198.0
11.35000, 193.0
11.36500, 203.0
11.38000, 174.0
11.39500, 184.0
11.41000, 180.0
11.42500, 180.0
11.44000, 210.0
11.45500, 212.0
11.47000, 186.0
11.48500, 208.0
11.50000, 183.0
11.51500, 188.0
11.53000, 166.0
11.54500, 199.0
11.56000, 180.0
11.57500, 167.0
11.59000, 184.0
11.60500, 190.0
11.62000, 206.0
11.63500, 219.0
11.65000, 243.0
11.66500, 257.0
11.68000, 280.0
11.69500, 309.0
11.71000, 375.0
11.72500, 406.0
11.74000, 432.0
11.75500, 465.0
11.77000, 509.0
11.78500, 530.0
11.80000, 543.0
11.81500, 511.0
11.83000, 494.0
11.84500, 458.0
11.86000, 426.0
11.87500, 391.0
11.89000, 301.0
11.90500, 260.0
11.92000, 235.0
11.93500, 237.0
11.95000, 200.0
11.96500, 182.0
11.98000, 170.0
11.99500, 158.0
12.01000, 192.0
12.02500, 177.0
12.04000, 154.0
12.05500, 176.0
12.07000, 168.0
12.08500, 159.0
12.10000, 155.0
12.11500, 182.0
12.13000, 158.0
12.14500, 150.0
12.16000, 153.0
12.17500, 169.0
12.19000, 154.0
12.20500, 166.0
12.22000, 171.0
12.23500, 153.0
12.25000, 187.0
12.26500, 200.0
12.28000, 195.0
12.29500, 214.0
12.31000, 204.0
12.32500, 213.0
12.34000, 207.0
12.35500, 221.0
12.37000, 254.0
12.38500, 242.0
12.40000, 249.0
12.41500, 271.0
12.43000, 233.0
12.44500, 229.0
12.46000, 213.0
12.47500, 210.0
12.49000, 184.0
12.50500, 195.0
12.52000, 173.0
12.53500, 156.0
12.55000, 138.0
12.56500, 158.0
12.58000, 145.0
12.59500, 137.0
12.61000, 137.0
12.62500, 131.0
12.64000, 138.0
12.65500, 129.0
12.67000, 133.0
12.68500, 143.0
12.70000, 156.0
12.71500, 144.0
12.73000, 134.0
12.74500, 115.0
12.76000, 129.0
12.77500, 118.0
12.79000, 119.0
12.80500, 134.0
12.82000, 126.0
12.83500, 134.0
12.85000, 134.0
12.86500, 137.0
12.88000, 134.0
12.89500, 107.0
12.91000, 136.0
12.92500, 134.0
12.94000, 117.0
12.95500, 142.0
12.97000, 129.0
12.98500, 116.0
13.00000, 127.0
13.01500, 123.0
13.03000, 132.0
13.04500, 136.0
13.06000, 102.0
13.07500, 111.0
13.09000, 124.0
13.10500, 114.0
13.12000, 108.0
13.13500, 116.0
13.15000, 121.0
13.16500, 115.0
13.18000, 105.0
13.19500, 98.0
13.21000, 105.0
13.22500, 105.0
13.24000, 117.0
13.25500, 104.0
13.27000, 99.0
13.28500, 102.0
13.30000, 109.0
13.31500, 120.0
13.33000, 117.0
13.34500, 113.0
13.36000, 101.0
13.37500, 94.0
13.39000, 116.0
13.40500, 116.0
13.42000, 99.0
13.43500, 95.0
13.45000, 120.0
13.46500, 112.0
13.48000, 106.0
13.49500, 107.0
13.51000, 109.0
13.52500, 99.0
13.54000, 103.0
13.55500, 110.0
13.57000, 107.0
13.58500, 102.0
13.60000, 94.0
13.61500, 101.0
13.63000, 89.0
13.64500, 92.0
13.66000, 95.0
13.67500, 94.0
13.69000, 109.0
13.70500, 95.0
13.72000, 98.0
13.73500, 101.0
13.75000, 98.0
13.76500, 96.0
13.78000, 99.0
13.79500, 104.0
13.81000, 91.0
13.82500, 99.0
13.84000, 89.0
13.85500, 93.0
13.87000, 79.0
13.88500, 93.0
13.90000, 91.0
13.91500, 83.0
13.93000, 105.0
13.94500, 84.0
13.96000, 101.0
13.97500, 111.0
13.99000, 92.0
14.00500, 87.0
14.02000, 101.0
14.03500, 85.0
14.05000, 97.0
14.06500, 82.0
14.08000, 99.0
14.09500, 96.0
14.11000, 94.0
14.12500, 77.0
14.14000, 90.0
14.15500, 90.0
14.17000, 91.0
14.18500, 80.0
14.20000, 93.0
14.21500, 87.0
14.23000, 85.0
14.24500, 91.0
14.26000, 77.0
14.27500, 82.0
14.29000, 81.0
14.30500, 82.0
14.32000, 92.0
14.33500, 83.0
14.35000, 84.0
14.36500, 84.0
14.38000, 103.0
14.39500, 87.0
14.41000, 76.0
14.42500, 86.0
14.44000, 65.0
14.45500, 68.0
14.47000, 90.0
14.48500, 76.0
14.50000, 73.0
14.51500, 84.0
14.53000, 76.0
14.54500, 82.0
14.56000, 76.0
14.57500, 73.0
14.59000, 83.0
14.60500, 88.0
14.62000, 72.0
14.63500, 76.0
14.65000, 63.0
14.66500, 78.0
14.68000, 76.0
14.69500, 76.0
14.71000, 77.0
14.72500, 70.0
14.74000, 79.0
14.75500, 80.0
14.77000, 80.0
14.78500, 74.0
14.80000, 65.0
14.81500, 68.0
14.83000, 61.0
14.84500, 66.0
14.86000, 62.0
14.87500, 77.0
14.89000, 71.0
14.90500, 74.0
14.92000, 51.0
14.93500, 72.0
14.95000, 71.0
14.96500, 69.0
14.98000, 64.0
14.99500, 66.0
15.01000, 72.0
15.02500, 68.0
15.04000, 53.0
15.05500, 70.0
15.07000, 59.0
15.08500, 63.0
15.10000, 65.0
15.11500, 68.0
15.13000, 61.0
15.14500, 64.0
15.16000, 66.0
15.17500, 63.0
15.19000, 56.0
15.20500, 48.0
15.22000, 69.0
15.23500, 51.0
15.25000, 50.0
15.26500, 60.0
15.28000, 63.0
15.29500, 59.0
15.31000, 65.0
15.32500, 69.0
15.34000, 63.0
15.35500, 61.0
15.37000, 60.0
15.38500, 49.0
15.40000, 55.0
15.41500, 54.0
15.43000, 51.0
15.44500, 61.0
15.46000, 61.0
15.47500, 50.0
15.49000, 60.0
15.50500, 67.0
15.52000, 51.0
15.53500, 53.0
15.55000, 52.0
15.56500, 56.0
15.58000, 57.0
15.59500, 59.0
15.61000, 62.0
15.62500, 56.0
15.64000, 49.0
15.65500, 56.0
15.67000, 49.0
15.68500, 48.0
15.70000, 59.0
15.71500, 50.0
15.73000, 53.0
15.74500, 50.0
15.76000, 41.0
15.77500, 57.0
15.79000, 41.0
15.80500, 41.0
15.82000, 53.0
15.83500, 44.0
15.85000, 51.0
15.86500, 50.0
15.88000, 46.0
15.89500, 57.0
15.91000, 49.0
15.92500, 52.0
15.94000, 49.0
15.95500, 51.0
15.97000, 46.0
15.98500, 42.0
16.00000, 47.0
16.01500, 35.0
16.03000, 37.0
16.04500, 43.0
16.06000, 42.0
16.07500, 41.0
16.09000, 46.0
16.10500, 43.0
16.12000, 42.0
16.13500, 42.0
16.15000, 42.0
16.16500, 39.0
16.18000, 42.0
16.19500, 41.0
16.21000, 40.0
16.22500, 41.0
16.24000, 41.0
16.25500, 39.0
16.27000, 40.0
16.28500, 46.0
16.30000, 38.0
16.31500, 43.0
16.33000, 40.0
16.34500, 34.0
16.36000, 43.0
16.37500, 48.0
16.39000, 39.0
16.40500, 40.0
16.42000, 42.0
16.43500, 41.0
16.45000, 34.0
16.46500, 44.0
16.48000, 40.0
16.49500, 41.0
16.51000, 43.0
16.52500, 37.0
16.54000, 35.0
16.55500, 31.0
16.57000, 36.0
16.58500, 35.0
16.60000, 36.0
16.61500, 39.0
16.63000, 42.0
16.64500, 39.0
16.66000, 40.0
16.67500, 47.0
16.69000, 36.0
16.70500, 37.0
16.72000, 32.0
16.73500, 28.0
16.75000, 31.0
16.76500, 35.0
16.78000, 34.0
16.79500, 40.0
16.81000, 40.0
16.82500, 32.0
16.84000, 36.0
16.85500, 33.0
16.87000, 23.0
16.88500, 38.0
16.90000, 28.0
16.91500, 25.0
16.93000, 31.0
16.94500, 36.0
16.96000, 35.0
16.97500, 35.0
16.99000, 26.0
17.00500, 24.0
17.02000, 26.0
17.03500, 38.0
17.05000, 26.0
17.06500, 31.0
17.08000, 24.0
17.09500, 34.0
17.11000, 30.0
17.12500, 37.0
17.14000, 27.0
17.15500, 25.0
17.17000, 28.0
17.18500, 25.0
17.20000, 28.0
17.21500, 22.0
17.23000, 27.0
17.24500, 26.0
17.26000, 27.0
17.27500, 30.0
17.29000, 30.0
17.30500, 33.0
17.32000, 28.0
17.33500, 26.0
17.35000, 30.0
17.36500, 28.0
17.38000, 21.0
17.39500, 26.0
17.41000, 28.0
17.42500, 25.0
17.44000, 28.0
17.45500, 28.0
17.47000, 21.0
17.48500, 25.0
17.50000, 16.0
17.51500, 22.0
17.53000, 30.0
17.54500, 28.0
17.56000, 21.0
17.57500, 21.0
17.59000, 24.0
17.60500, 26.0
17.62000, 26.0
17.63500, 23.0
17.65000, 30.0
17.66500, 26.0
17.68000, 20.0
17.69500, 25.0
17.71000, 28.0
17.72500, 22.0
17.74000, 22.0
17.75500, 28.0
17.77000, 27.0
17.78500, 14.0
17.80000, 22.0
17.81500, 18.0
17.83000, 17.0
17.84500, 27.0
17.86000, 26.0
17.87500, 19.0
17.89000, 12.0
17.90500, 19.0
17.92000, 17.0
17.93500, 18.0
17.95000, 13.0
17.96500, 19.0
17.98000, 16.0
17.99500, 15.0
18.01000, 22.0
18.02500, 16.0
18.04000, 16.0
18.05500, 18.0
18.07000, 15.0
18.08500, 20.0
18.10000, 18.0
18.11500, 21.0
18.13000, 23.0
18.14500, 15.0
18.16000, 21.0
18.17500, 15.0
18.19000, 19.0
18.20500, 22.0
18.22000, 13.0
18.23500, 17.0
18.25000, 25.0
18.26500, 22.0
18.28000, 20.0
18.29500, 17.0
18.31000, 17.0
18.32500, 15.0
18.34000, 13.0
18.35500, 21.0
18.37000, 15.0
18.38500, 14.0
18.40000, 18.0
18.41500, 13.0
18.43000, 15.0
18.44500, 13.0
18.46000, 10.0
18.47500, 10.0
18.49000, 11.0
18.50500, 15.0
18.52000, 18.0
18.53500, 12.0
18.55000, 10.0
18.56500, 16.0
18.58000, 13.0
18.59500, 9.0
18.61000, 14.0
18.62500, 11.0
18.64000, 12.0
18.65500, 17.0
18.67000, 12.0
18.68500, 14.0
18.70000, 20.0
18.71500, 12.0
18.73000, 22.0
18.74500, 9.0
18.76000, 16.0
18.77500, 16.0
18.79000, 7.0
18.80500, 13.0
18.82000, 10.0
18.83500, 13.0
18.85000, 6.0
18.86500, 12.0
18.88000, 9.0
18.89500, 7.0
18.91000, 8.0
18.92500, 9.0
18.94000, 11.0
18.95500, 12.0
18.97000, 12.0
18.98500, 6.0
19.00000, 19.0
19.01500, 7.0
19.03000, 9.0
19.04500, 12.0
19.06000, 6.0
19.07500, 5.0
19.09000, 14.0
19.10500, 6.0
19.12000, 9.0
19.13500, 9.0
19.15000, 2.0
19.16500, 6.0
19.18000, 10.0
19.19500, 5.0
19.21000, 8.0
19.22500, 7.0
19.24000, 10.0
19.25500, 11.0
19.27000, 9.0
19.28500, 9.0
19.30000, 8.0
19.31500, 9.0
19.33000, 2.0
19.34500, 7.0
19.36000, 11.0
19.37500, 10.0
19.39000, 8.0
19.40500, 9.0
19.42000, 4.0
19.43500, 9.0
19.45000, 5.0
19.46500, 9.0
19.48000, 11.0
19.49500, 7.0
19.51000, 10.0
19.52500, 3.0
19.54000, 6.0
19.55500, 3.0
19.57000, 6.0
19.58500, 7.0
19.60000, 5.0
19.61500, 6.0
19.63000, 3.0
19.64500, 7.0
19.66000, 5.0
19.67500, 6.0
19.69000, 5.0
19.70500, 4.0
19.72000, 3.0
19.73500, 5.0
19.75000, 8.0
19.76500, 3.0
19.78000, 4.0
19.79500, 5.0
19.81000, 4.0
19.82500, 4.0
19.84000, 5.0
19.85500, 5.0
19.87000, 1.0
19.88500, 6.0
19.90000, 2.0
19.91500, 2.0
19.93000, 1.0
19.94500, 1.0
19.96000, 2.0
19.97500, 2.0
19.99000, 2.0
20.00500, 1.0
20.02000, 2.0
20.03500, 2.0
20.05000, 2.0
20.06500, 2.0
20.08000, 4.0
20.09500, 3.0
20.11000, 4.0
20.12500, 1.0
20.14000, 1.0
20.15500, 1.0
20.17000, 1.0
20.18500, 0.0
20.20000, 1.0
20.21500, 3.0
20.23000, 1.0
20.24500, 3.0
20.26000, 4.0
20.27500, 3.0
#ENDOFDATA   :