File: dtsa2/detectors/2-FEI Sirion/Oxford p6 10eV 2K.txt
#FORMAT      : EMSA/MAS Spectral Data File
#VERSION     : 1.0
#TITLE       : 2048-10eV-s4-p6
#DATE        : 29-MAY-2014
#TIME        : 14:59
#OWNER       :
#NPOINTS     : 2048.0
#NCOLUMNS    : 1.0
#XUNITS      : keV
#YUNITS      : counts
#DATATYPE    : XY
#XPERCHAN    : 0.01
#OFFSET      : -0.2
#SIGNALTYPE  : EDS
#CHOFFSET    : 20.0
#LIVETIME    : 100.271
#REALTIME    : 141.148
#BEAMKV      : 20.0
#PROBECUR    : 0.0
#MAGCAM      : 3500.0
#XTILTSTGE   : 0.0
#AZIMANGLE   : 0.0
#ELEVANGLE   : 35.0
#XPOSITION mm: -3.1130
#YPOSITION mm: 1.3240
#ZPOSITION mm: 5.0130
##OXINSTPT   : 6
##OXINSTSTROB: 34.46
##OXINSTELEMS: 25,6,13
##OXINSTLABEL: 25, 5.899, Mn
##OXINSTLABEL: 25, 6.490, Mn
##OXINSTLABEL: 25, 0.636, Mn
##OXINSTLABEL: 25, 0.567, Mn
##OXINSTLABEL: 6, 0.277, C
##OXINSTLABEL: 13, 1.487, Al
#SPECTRUM    : Spectral Data Starts Here
-0.20000, 0.0
-0.18000, 0.0
-0.16000, 0.0
-0.14000, 0.0
-0.12000, 0.0
-0.10000, 0.0
-0.08000, 0.0
-0.06000, 5.0
-0.04000, 133.0
-0.02000, 1943.0
0.00000, 7054.0
0.02000, 6074.0
0.04000, 1403.0
0.06000, 158.0
0.08000, 110.0
0.10000, 123.0
0.12000, 146.0
0.14000, 130.0
0.16000, 150.0
0.18000, 163.0
0.20000, 182.0
0.22000, 264.0
0.24000, 532.0
0.26000, 1056.0
0.28000, 1281.0
0.30000, 676.0
0.32000, 248.0
0.34000, 223.0
0.36000, 265.0
0.38000, 334.0
0.40000, 364.0
0.42000, 436.0
0.44000, 555.0
0.46000, 655.0
0.48000, 849.0
0.50000, 1442.0
0.52000, 2919.0
0.54000, 5028.0
0.56000, 5964.0
0.58000, 4509.0
0.60000, 5259.0
0.62000, 10229.0
0.64000, 12294.0
0.66000, 7359.0
0.68000, 2351.0
0.70000, 627.0
0.72000, 327.0
0.74000, 268.0
0.76000, 220.0
0.78000, 182.0
0.80000, 206.0
0.82000, 216.0
0.84000, 228.0
0.86000, 199.0
0.88000, 243.0
0.90000, 271.0
0.92000, 263.0
0.94000, 280.0
0.96000, 267.0
0.98000, 301.0
1.00000, 308.0
1.02000, 349.0
1.04000, 329.0
1.06000, 341.0
1.08000, 354.0
1.10000, 345.0
1.12000, 378.0
1.14000, 381.0
1.16000, 426.0
1.18000, 438.0
1.20000, 452.0
1.22000, 453.0
1.24000, 453.0
1.26000, 482.0
1.28000, 499.0
1.30000, 511.0
1.32000, 456.0
1.34000, 496.0
1.36000, 500.0
1.38000, 531.0
1.40000, 529.0
1.42000, 542.0
1.44000, 552.0
1.46000, 618.0
1.48000, 703.0
1.50000, 681.0
1.52000, 631.0
1.54000, 621.0
1.56000, 577.0
1.58000, 586.0
1.60000, 574.0
1.62000, 530.0
1.64000, 558.0
1.66000, 606.0
1.68000, 587.0
1.70000, 612.0
1.72000, 654.0
1.74000, 657.0
1.76000, 637.0
1.78000, 651.0
1.80000, 632.0
1.82000, 625.0
1.84000, 571.0
1.86000, 592.0
1.88000, 584.0
1.90000, 626.0
1.92000, 600.0
1.94000, 603.0
1.96000, 610.0
1.98000, 608.0
2.00000, 640.0
2.02000, 620.0
2.04000, 631.0
2.06000, 639.0
2.08000, 632.0
2.10000, 649.0
2.12000, 624.0
2.14000, 655.0
2.16000, 646.0
2.18000, 618.0
2.20000, 657.0
2.22000, 662.0
2.24000, 594.0
2.26000, 656.0
2.28000, 641.0
2.30000, 662.0
2.32000, 626.0
2.34000, 660.0
2.36000, 649.0
2.38000, 643.0
2.40000, 653.0
2.42000, 604.0
2.44000, 669.0
2.46000, 638.0
2.48000, 627.0
2.50000, 659.0
2.52000, 633.0
2.54000, 667.0
2.56000, 630.0
2.58000, 665.0
2.60000, 595.0
2.62000, 633.0
2.64000, 604.0
2.66000, 630.0
2.68000, 630.0
2.70000, 632.0
2.72000, 634.0
2.74000, 620.0
2.76000, 595.0
2.78000, 624.0
2.80000, 610.0
2.82000, 605.0
2.84000, 636.0
2.86000, 605.0
2.88000, 538.0
2.90000, 581.0
2.92000, 579.0
2.94000, 568.0
2.96000, 584.0
2.98000, 597.0
3.00000, 601.0
3.02000, 575.0
3.04000, 548.0
3.06000, 563.0
3.08000, 586.0
3.10000, 516.0
3.12000, 564.0
3.14000, 549.0
3.16000, 564.0
3.18000, 549.0
3.20000, 577.0
3.22000, 539.0
3.24000, 572.0
3.26000, 539.0
3.28000, 534.0
3.30000, 553.0
3.32000, 546.0
3.34000, 554.0
3.36000, 542.0
3.38000, 511.0
3.40000, 519.0
3.42000, 493.0
3.44000, 511.0
3.46000, 531.0
3.48000, 538.0
3.50000, 505.0
3.52000, 504.0
3.54000, 519.0
3.56000, 483.0
3.58000, 508.0
3.60000, 492.0
3.62000, 498.0
3.64000, 477.0
3.66000, 475.0
3.68000, 481.0
3.70000, 478.0
3.72000, 491.0
3.74000, 464.0
3.76000, 496.0
3.78000, 487.0
3.80000, 482.0
3.82000, 457.0
3.84000, 480.0
3.86000, 471.0
3.88000, 468.0
3.90000, 459.0
3.92000, 465.0
3.94000, 472.0
3.96000, 456.0
3.98000, 466.0
4.00000, 457.0
4.02000, 462.0
4.04000, 465.0
4.06000, 470.0
4.08000, 462.0
4.10000, 508.0
4.12000, 553.0
4.14000, 544.0
4.16000, 574.0
4.18000, 563.0
4.20000, 507.0
4.22000, 478.0
4.24000, 457.0
4.26000, 455.0
4.28000, 414.0
4.30000, 420.0
4.32000, 425.0
4.34000, 408.0
4.36000, 402.0
4.38000, 423.0
4.40000, 410.0
4.42000, 432.0
4.44000, 425.0
4.46000, 396.0
4.48000, 409.0
4.50000, 400.0
4.52000, 390.0
4.54000, 390.0
4.56000, 397.0
4.58000, 408.0
4.60000, 366.0
4.62000, 361.0
4.64000, 416.0
4.66000, 388.0
4.68000, 385.0
4.70000, 417.0
4.72000, 401.0
4.74000, 420.0
4.76000, 384.0
4.78000, 395.0
4.80000, 384.0
4.82000, 391.0
4.84000, 361.0
4.86000, 366.0
4.88000, 352.0
4.90000, 360.0
4.92000, 380.0
4.94000, 357.0
4.96000, 343.0
4.98000, 348.0
5.00000, 336.0
5.02000, 386.0
5.04000, 361.0
5.06000, 338.0
5.08000, 352.0
5.10000, 335.0
5.12000, 351.0
5.14000, 321.0
5.16000, 318.0
5.18000, 371.0
5.20000, 336.0
5.22000, 329.0
5.24000, 317.0
5.26000, 347.0
5.28000, 318.0
5.30000, 348.0
5.32000, 327.0
5.34000, 308.0
5.36000, 353.0
5.38000, 322.0
5.40000, 330.0
5.42000, 312.0
5.44000, 303.0
5.46000, 318.0
5.48000, 308.0
5.50000, 339.0
5.52000, 325.0
5.54000, 325.0
5.56000, 311.0
5.58000, 319.0
5.60000, 337.0
5.62000, 331.0
5.64000, 354.0
5.66000, 373.0
5.68000, 381.0
5.70000, 408.0
5.72000, 503.0
5.74000, 753.0
5.76000, 1406.0
5.78000, 2940.0
5.80000, 5821.0
5.82000, 10667.0
5.84000, 16724.0
5.86000, 23480.0
5.88000, 28390.0
5.90000, 29689.0
5.92000, 27369.0
5.94000, 21793.0
5.96000, 15092.0
5.98000, 9145.0
6.00000, 4866.0
6.02000, 2443.0
6.04000, 1134.0
6.06000, 597.0
6.08000, 404.0
6.10000, 321.0
6.12000, 327.0
6.14000, 301.0
6.16000, 310.0
6.18000, 306.0
6.20000, 306.0
6.22000, 299.0
6.24000, 302.0
6.26000, 333.0
6.28000, 325.0
6.30000, 362.0
6.32000, 382.0
6.34000, 482.0
6.36000, 611.0
6.38000, 910.0
6.40000, 1413.0
6.42000, 2070.0
6.44000, 2758.0
6.46000, 3555.0
6.48000, 4067.0
6.50000, 3906.0
6.52000, 3482.0
6.54000, 2703.0
6.56000, 1957.0
6.58000, 1269.0
6.60000, 761.0
6.62000, 468.0
6.64000, 296.0
6.66000, 231.0
6.68000, 199.0
6.70000, 186.0
6.72000, 180.0
6.74000, 188.0
6.76000, 180.0
6.78000, 175.0
6.80000, 164.0
6.82000, 178.0
6.84000, 199.0
6.86000, 182.0
6.88000, 190.0
6.90000, 181.0
6.92000, 170.0
6.94000, 182.0
6.96000, 169.0
6.98000, 177.0
7.00000, 173.0
7.02000, 189.0
7.04000, 180.0
7.06000, 185.0
7.08000, 148.0
7.10000, 168.0
7.12000, 194.0
7.14000, 179.0
7.16000, 167.0
7.18000, 176.0
7.20000, 177.0
7.22000, 179.0
7.24000, 184.0
7.26000, 181.0
7.28000, 172.0
7.30000, 164.0
7.32000, 176.0
7.34000, 161.0
7.36000, 188.0
7.38000, 156.0
7.40000, 169.0
7.42000, 175.0
7.44000, 163.0
7.46000, 166.0
7.48000, 162.0
7.50000, 169.0
7.52000, 157.0
7.54000, 170.0
7.56000, 160.0
7.58000, 157.0
7.60000, 161.0
7.62000, 157.0
7.64000, 174.0
7.66000, 185.0
7.68000, 159.0
7.70000, 168.0
7.72000, 153.0
7.74000, 173.0
7.76000, 166.0
7.78000, 168.0
7.80000, 140.0
7.82000, 139.0
7.84000, 143.0
7.86000, 178.0
7.88000, 167.0
7.90000, 158.0
7.92000, 157.0
7.94000, 154.0
7.96000, 158.0
7.98000, 144.0
8.00000, 151.0
8.02000, 154.0
8.04000, 161.0
8.06000, 154.0
8.08000, 143.0
8.10000, 144.0
8.12000, 173.0
8.14000, 155.0
8.16000, 149.0
8.18000, 156.0
8.20000, 143.0
8.22000, 156.0
8.24000, 131.0
8.26000, 165.0
8.28000, 150.0
8.30000, 132.0
8.32000, 154.0
8.34000, 143.0
8.36000, 143.0
8.38000, 150.0
8.40000, 150.0
8.42000, 135.0
8.44000, 131.0
8.46000, 136.0
8.48000, 129.0
8.50000, 140.0
8.52000, 164.0
8.54000, 144.0
8.56000, 134.0
8.58000, 133.0
8.60000, 144.0
8.62000, 135.0
8.64000, 142.0
8.66000, 133.0
8.68000, 129.0
8.70000, 135.0
8.72000, 153.0
8.74000, 139.0
8.76000, 131.0
8.78000, 153.0
8.80000, 121.0
8.82000, 157.0
8.84000, 150.0
8.86000, 117.0
8.88000, 155.0
8.90000, 136.0
8.92000, 144.0
8.94000, 137.0
8.96000, 135.0
8.98000, 120.0
9.00000, 140.0
9.02000, 148.0
9.04000, 136.0
9.06000, 148.0
9.08000, 129.0
9.10000, 138.0
9.12000, 138.0
9.14000, 131.0
9.16000, 142.0
9.18000, 125.0
9.20000, 115.0
9.22000, 142.0
9.24000, 138.0
9.26000, 133.0
9.28000, 122.0
9.30000, 137.0
9.32000, 133.0
9.34000, 121.0
9.36000, 136.0
9.38000, 114.0
9.40000, 110.0
9.42000, 124.0
9.44000, 121.0
9.46000, 114.0
9.48000, 109.0
9.50000, 125.0
9.52000, 107.0
9.54000, 125.0
9.56000, 116.0
9.58000, 100.0
9.60000, 108.0
9.62000, 111.0
9.64000, 105.0
9.66000, 125.0
9.68000, 122.0
9.70000, 116.0
9.72000, 108.0
9.74000, 125.0
9.76000, 122.0
9.78000, 122.0
9.80000, 122.0
9.82000, 104.0
9.84000, 107.0
9.86000, 109.0
9.88000, 122.0
9.90000, 110.0
9.92000, 113.0
9.94000, 112.0
9.96000, 116.0
9.98000, 97.0
10.00000, 103.0
10.02000, 103.0
10.04000, 98.0
10.06000, 120.0
10.08000, 117.0
10.10000, 112.0
10.12000, 98.0
10.14000, 90.0
10.16000, 112.0
10.18000, 109.0
10.20000, 100.0
10.22000, 112.0
10.24000, 92.0
10.26000, 110.0
10.28000, 100.0
10.30000, 95.0
10.32000, 104.0
10.34000, 105.0
10.36000, 116.0
10.38000, 111.0
10.40000, 98.0
10.42000, 85.0
10.44000, 105.0
10.46000, 102.0
10.48000, 92.0
10.50000, 98.0
10.52000, 105.0
10.54000, 92.0
10.56000, 96.0
10.58000, 106.0
10.60000, 102.0
10.62000, 96.0
10.64000, 94.0
10.66000, 87.0
10.68000, 103.0
10.70000, 98.0
10.72000, 100.0
10.74000, 112.0
10.76000, 108.0
10.78000, 107.0
10.80000, 84.0
10.82000, 85.0
10.84000, 78.0
10.86000, 88.0
10.88000, 78.0
10.90000, 80.0
10.92000, 88.0
10.94000, 98.0
10.96000, 82.0
10.98000, 109.0
11.00000, 83.0
11.02000, 89.0
11.04000, 76.0
11.06000, 81.0
11.08000, 89.0
11.10000, 99.0
11.12000, 86.0
11.14000, 91.0
11.16000, 88.0
11.18000, 83.0
11.20000, 76.0
11.22000, 88.0
11.24000, 92.0
11.26000, 84.0
11.28000, 74.0
11.30000, 85.0
11.32000, 82.0
11.34000, 85.0
11.36000, 80.0
11.38000, 77.0
11.40000, 84.0
11.42000, 76.0
11.44000, 85.0
11.46000, 72.0
11.48000, 86.0
11.50000, 79.0
11.52000, 72.0
11.54000, 89.0
11.56000, 68.0
11.58000, 71.0
11.60000, 80.0
11.62000, 90.0
11.64000, 70.0
11.66000, 81.0
11.68000, 82.0
11.70000, 91.0
11.72000, 106.0
11.74000, 97.0
11.76000, 108.0
11.78000, 110.0
11.80000, 93.0
11.82000, 109.0
11.84000, 107.0
11.86000, 106.0
11.88000, 103.0
11.90000, 86.0
11.92000, 85.0
11.94000, 74.0
11.96000, 80.0
11.98000, 79.0
12.00000, 72.0
12.02000, 61.0
12.04000, 82.0
12.06000, 67.0
12.08000, 72.0
12.10000, 72.0
12.12000, 61.0
12.14000, 70.0
12.16000, 55.0
12.18000, 73.0
12.20000, 69.0
12.22000, 69.0
12.24000, 63.0
12.26000, 72.0
12.28000, 59.0
12.30000, 68.0
12.32000, 77.0
12.34000, 68.0
12.36000, 96.0
12.38000, 69.0
12.40000, 69.0
12.42000, 61.0
12.44000, 77.0
12.46000, 62.0
12.48000, 61.0
12.50000, 51.0
12.52000, 62.0
12.54000, 59.0
12.56000, 70.0
12.58000, 59.0
12.60000, 55.0
12.62000, 49.0
12.64000, 57.0
12.66000, 60.0
12.68000, 58.0
12.70000, 55.0
12.72000, 59.0
12.74000, 58.0
12.76000, 56.0
12.78000, 55.0
12.80000, 48.0
12.82000, 60.0
12.84000, 60.0
12.86000, 57.0
12.88000, 66.0
12.90000, 54.0
12.92000, 57.0
12.94000, 57.0
12.96000, 65.0
12.98000, 47.0
13.00000, 52.0
13.02000, 53.0
13.04000, 50.0
13.06000, 65.0
13.08000, 42.0
13.10000, 48.0
13.12000, 50.0
13.14000, 51.0
13.16000, 44.0
13.18000, 58.0
13.20000, 50.0
13.22000, 54.0
13.24000, 43.0
13.26000, 45.0
13.28000, 40.0
13.30000, 51.0
13.32000, 52.0
13.34000, 38.0
13.36000, 45.0
13.38000, 46.0
13.40000, 45.0
13.42000, 46.0
13.44000, 42.0
13.46000, 43.0
13.48000, 54.0
13.50000, 54.0
13.52000, 49.0
13.54000, 59.0
13.56000, 41.0
13.58000, 40.0
13.60000, 46.0
13.62000, 42.0
13.64000, 37.0
13.66000, 45.0
13.68000, 52.0
13.70000, 52.0
13.72000, 41.0
13.74000, 40.0
13.76000, 39.0
13.78000, 47.0
13.80000, 39.0
13.82000, 48.0
13.84000, 41.0
13.86000, 45.0
13.88000, 42.0
13.90000, 41.0
13.92000, 43.0
13.94000, 35.0
13.96000, 34.0
13.98000, 42.0
14.00000, 39.0
14.02000, 29.0
14.04000, 38.0
14.06000, 42.0
14.08000, 45.0
14.10000, 41.0
14.12000, 49.0
14.14000, 35.0
14.16000, 38.0
14.18000, 32.0
14.20000, 40.0
14.22000, 34.0
14.24000, 36.0
14.26000, 36.0
14.28000, 29.0
14.30000, 30.0
14.32000, 36.0
14.34000, 37.0
14.36000, 37.0
14.38000, 36.0
14.40000, 43.0
14.42000, 30.0
14.44000, 24.0
14.46000, 33.0
14.48000, 33.0
14.50000, 24.0
14.52000, 32.0
14.54000, 27.0
14.56000, 35.0
14.58000, 40.0
14.60000, 29.0
14.62000, 30.0
14.64000, 35.0
14.66000, 35.0
14.68000, 37.0
14.70000, 34.0
14.72000, 33.0
14.74000, 29.0
14.76000, 36.0
14.78000, 32.0
14.80000, 22.0
14.82000, 27.0
14.84000, 25.0
14.86000, 27.0
14.88000, 23.0
14.90000, 36.0
14.92000, 31.0
14.94000, 23.0
14.96000, 30.0
14.98000, 29.0
15.00000, 30.0
15.02000, 23.0
15.04000, 25.0
15.06000, 28.0
15.08000, 35.0
15.10000, 26.0
15.12000, 28.0
15.14000, 27.0
15.16000, 30.0
15.18000, 28.0
15.20000, 24.0
15.22000, 26.0
15.24000, 19.0
15.26000, 20.0
15.28000, 24.0
15.30000, 23.0
15.32000, 28.0
15.34000, 18.0
15.36000, 22.0
15.38000, 27.0
15.40000, 33.0
15.42000, 26.0
15.44000, 23.0
15.46000, 21.0
15.48000, 27.0
15.50000, 19.0
15.52000, 21.0
15.54000, 28.0
15.56000, 25.0
15.58000, 25.0
15.60000, 26.0
15.62000, 22.0
15.64000, 19.0
15.66000, 22.0
15.68000, 21.0
15.70000, 20.0
15.72000, 17.0
15.74000, 22.0
15.76000, 24.0
15.78000, 17.0
15.80000, 27.0
15.82000, 22.0
15.84000, 30.0
15.86000, 20.0
15.88000, 19.0
15.90000, 23.0
15.92000, 19.0
15.94000, 22.0
15.96000, 17.0
15.98000, 18.0
16.00000, 19.0
16.02000, 20.0
16.04000, 18.0
16.06000, 19.0
16.08000, 16.0
16.10000, 17.0
16.12000, 16.0
16.14000, 21.0
16.16000, 13.0
16.18000, 14.0
16.20000, 22.0
16.22000, 18.0
16.24000, 13.0
16.26000, 13.0
16.28000, 14.0
16.30000, 17.0
16.32000, 20.0
16.34000, 15.0
16.36000, 16.0
16.38000, 15.0
16.40000, 13.0
16.42000, 17.0
16.44000, 15.0
16.46000, 17.0
16.48000, 13.0
16.50000, 18.0
16.52000, 17.0
16.54000, 14.0
16.56000, 13.0
16.58000, 13.0
16.60000, 17.0
16.62000, 16.0
16.64000, 11.0
16.66000, 12.0
16.68000, 17.0
16.70000, 17.0
16.72000, 17.0
16.74000, 13.0
16.76000, 14.0
16.78000, 15.0
16.80000, 15.0
16.82000, 12.0
16.84000, 14.0
16.86000, 10.0
16.88000, 13.0
16.90000, 12.0
16.92000, 10.0
16.94000, 13.0
16.96000, 10.0
16.98000, 11.0
17.00000, 13.0
17.02000, 12.0
17.04000, 13.0
17.06000, 9.0
17.08000, 8.0
17.10000, 12.0
17.12000, 11.0
17.14000, 12.0
17.16000, 11.0
17.18000, 12.0
17.20000, 18.0
17.22000, 13.0
17.24000, 12.0
17.26000, 7.0
17.28000, 12.0
17.30000, 10.0
17.32000, 11.0
17.34000, 8.0
17.36000, 7.0
17.38000, 11.0
17.40000, 14.0
17.42000, 12.0
17.44000, 13.0
17.46000, 9.0
17.48000, 9.0
17.50000, 12.0
17.52000, 7.0
17.54000, 11.0
17.56000, 7.0
17.58000, 15.0
17.60000, 9.0
17.62000, 7.0
17.64000, 14.0
17.66000, 8.0
17.68000, 10.0
17.70000, 11.0
17.72000, 9.0
17.74000, 11.0
17.76000, 7.0
17.78000, 6.0
17.80000, 10.0
17.82000, 10.0
17.84000, 6.0
17.86000, 5.0
17.88000, 8.0
17.90000, 4.0
17.92000, 4.0
17.94000, 7.0
17.96000, 7.0
17.98000, 8.0
18.00000, 10.0
18.02000, 10.0
18.04000, 6.0
18.06000, 8.0
18.08000, 7.0
18.10000, 5.0
18.12000, 6.0
18.14000, 4.0
18.16000, 9.0
18.18000, 7.0
18.20000, 8.0
18.22000, 6.0
18.24000, 6.0
18.26000, 6.0
18.28000, 5.0
18.30000, 4.0
18.32000, 6.0
18.34000, 6.0
18.36000, 5.0
18.38000, 3.0
18.40000, 7.0
18.42000, 6.0
18.44000, 6.0
18.46000, 3.0
18.48000, 3.0
18.50000, 4.0
18.52000, 6.0
18.54000, 4.0
18.56000, 2.0
18.58000, 5.0
18.60000, 6.0
18.62000, 5.0
18.64000, 6.0
18.66000, 5.0
18.68000, 6.0
18.70000, 4.0
18.72000, 4.0
18.74000, 7.0
18.76000, 4.0
18.78000, 4.0
18.80000, 2.0
18.82000, 4.0
18.84000, 3.0
18.86000, 3.0
18.88000, 2.0
18.90000, 4.0
18.92000, 3.0
18.94000, 2.0
18.96000, 2.0
18.98000, 5.0
19.00000, 1.0
19.02000, 3.0
19.04000, 3.0
19.06000, 3.0
19.08000, 3.0
19.10000, 2.0
19.12000, 1.0
19.14000, 4.0
19.16000, 2.0
19.18000, 3.0
19.20000, 1.0
19.22000, 1.0
19.24000, 3.0
19.26000, 4.0
19.28000, 0.0
19.30000, 3.0
19.32000, 3.0
19.34000, 4.0
19.36000, 4.0
19.38000, 3.0
19.40000, 4.0
19.42000, 3.0
19.44000, 2.0
19.46000, 2.0
19.48000, 3.0
19.50000, 1.0
19.52000, 1.0
19.54000, 2.0
19.56000, 2.0
19.58000, 2.0
19.60000, 0.0
19.62000, 0.0
19.64000, 0.0
19.66000, 0.0
19.68000, 0.0
19.70000, 1.0
19.72000, 0.0
19.74000, 1.0
19.76000, 1.0
19.78000, 2.0
19.80000, 0.0
19.82000, 2.0
19.84000, 1.0
19.86000, 0.0
19.88000, 0.0
19.90000, 0.0
19.92000, 0.0
19.94000, 0.0
19.96000, 1.0
19.98000, 1.0
20.00000, 1.0
20.02000, 0.0
20.04000, 0.0
20.06000, 0.0
20.08000, 1.0
20.10000, 0.0
20.12000, 0.0
20.14000, 0.0
20.16000, 1.0
20.18000, 1.0
20.20000, 1.0
20.22000, 0.0
20.24000, 0.0
20.26000, 0.0
20.27000, 0.0
#ENDOFDATA   :