File: dtsa2/DemoSpectra/Benitoite/Al2O3 std.msa
#FORMAT      : EMSA/MAS Spectral Data File
#VERSION     : 1.0
#TITLE       : Bruker AXS spectrum Al2O3
#DATE        : 29-JUL-2008
#TIME        : 10:44
#OWNER       : Bruker AXS
#NPOINTS     : 4096
#NCOLUMNS    : 4
#XUNITS      : eV
#YUNITS      : counts
#DATATYPE    : Y
#XPERCHAN    : 5.00409
#OFFSET      : -477.824
#BEAMKV      : 15
#SIGNALTYPE  : EDS
#ELEVANGLE   : 40
#AZIMANGLE   : 180
#LIVETIME    : 59.359
#REALTIME    : 63.694
#PROBECUR    : 2.5
#TAUWIND     : 0
#TDEADLYR    : 0.00001
#TACTLYR     : 0.045
#TALWIND     : 0.003
#CHOFFSET    : 0.0
#XLABEL      : Energy (eV)
#YLABEL      : Counts
#EDSDET      : SDDUTW
##D2STDCMP   : Al2O3,(O:47.0749),(Al:52.9251),5.0
#SPECTRUM    :
0, 0, 0, 0,
0, 0, 0, 0,
0, 0, 0, 0,
0, 0, 0, 0,
0, 0, 0, 0,
0, 0, 0, 0,
0, 0, 0, 0,
0, 0, 0, 0,
0, 0, 0, 0,
0, 0, 0, 0,
0, 0, 0, 0,
0, 0, 0, 0,
0, 0, 0, 0,
0, 0, 0, 0,
0, 0, 0, 0,
0, 0, 0, 0,
0, 0, 0, 0,
0, 0, 0, 0,
0, 0, 0, 0,
0, 0, 0, 0,
1, 2, 15, 76,
222, 609, 1584, 4065,
9702, 19415, 35869, 58568,
85925, 113623, 133372, 141820,
135594, 117045, 90228, 63146,
40221, 22972, 11599, 5042,
1724, 378, 0, 0,
0, 0, 0, 0,
9, 34, 63, 83,
90, 86, 81, 73,
72, 73, 73, 69,
67, 59, 66, 60,
63, 63, 66, 72,
77, 82, 87, 93,
97, 103, 112, 120,
137, 157, 189, 220,
255, 298, 350, 410,
468, 504, 520, 505,
473, 419, 359, 302,
253, 213, 181, 149,
143, 131, 141, 144,
154, 156, 150, 167,
182, 182, 206, 226,
236, 244, 257, 273,
281, 287, 322, 351,
419, 488, 545, 631,
767, 977, 1251, 1636,
2288, 3163, 4268, 5859,
7888, 10566, 13596, 17129,
20893, 24584, 27670, 29562,
29940, 29359, 27259, 23916,
19632, 15269, 11655, 7860,
5265, 3565, 2010, 1246,
777, 501, 330, 228,
209, 188, 188, 177,
159, 173, 188, 180,
182, 178, 207, 193,
203, 220, 235, 253,
213, 246, 222, 229,
229, 266, 257, 292,
282, 255, 269, 271,
292, 267, 267, 278,
283, 291, 281, 282,
314, 313, 286, 323,
341, 293, 363, 294,
354, 355, 345, 394,
369, 353, 367, 337,
403, 434, 382, 406,
387, 433, 386, 383,
406, 398, 416, 428,
424, 419, 410, 447,
441, 453, 415, 439,
450, 412, 431, 448,
469, 513, 476, 498,
471, 507, 493, 459,
472, 498, 489, 496,
478, 524, 508, 468,
471, 509, 525, 486,
465, 504, 500, 500,
558, 483, 503, 471,
502, 532, 494, 521,
567, 502, 525, 509,
532, 559, 583, 564,
575, 578, 552, 605,
573, 587, 623, 597,
597, 608, 576, 628,
611, 561, 650, 631,
648, 725, 694, 704,
668, 684, 723, 704,
737, 735, 730, 807,
785, 742, 836, 836,
811, 858, 886, 892,
861, 959, 930, 982,
1121, 1222, 1341, 1543,
1968, 2453, 3190, 4483,
6062, 8277, 11014, 14894,
18872, 24031, 30273, 36301,
42717, 48679, 54252, 58144,
61237, 62628, 62762, 60099,
57184, 51961, 46331, 40149,
34375, 28262, 22931, 18321,
14285, 10987, 8332, 6343,
4966, 3729, 3086, 2289,
1784, 1491, 1223, 1070,
873, 728, 629, 459,
468, 437, 367, 361,
320, 301, 297, 257,
265, 292, 286, 267,
270, 253, 261, 266,
256, 294, 302, 274,
283, 300, 296, 296,
322, 319, 275, 296,
285, 286, 268, 285,
315, 292, 294, 272,
252, 269, 262, 311,
301, 276, 252, 262,
301, 275, 303, 263,
262, 278, 243, 265,
290, 311, 259, 294,
273, 272, 294, 292,
266, 268, 284, 284,
297, 308, 296, 342,
280, 294, 272, 306,
332, 339, 361, 301,
326, 324, 313, 321,
320, 303, 300, 282,
298, 265, 274, 261,
292, 286, 265, 251,
254, 259, 261, 251,
283, 270, 262, 263,
258, 265, 244, 263,
251, 257, 249, 216,
259, 299, 275, 242,
254, 246, 273, 246,
250, 240, 259, 252,
260, 244, 238, 244,
222, 241, 233, 264,
263, 267, 235, 251,
269, 235, 247, 265,
260, 223, 246, 249,
260, 233, 222, 232,
248, 250, 273, 276,
250, 236, 229, 231,
242, 244, 255, 256,
225, 246, 245, 253,
207, 228, 258, 261,
225, 222, 242, 248,
232, 224, 261, 236,
261, 221, 247, 225,
247, 237, 231, 270,
222, 246, 248, 235,
249, 252, 248, 234,
248, 235, 245, 243,
274, 223, 242, 212,
253, 238, 218, 261,
222, 242, 242, 215,
223, 239, 263, 213,
245, 227, 219, 207,
215, 236, 227, 244,
219, 236, 230, 225,
250, 218, 216, 260,
218, 240, 215, 259,
209, 210, 200, 236,
229, 243, 218, 244,
227, 228, 222, 221,
214, 221, 222, 235,
223, 231, 215, 198,
234, 207, 223, 228,
214, 203, 224, 218,
231, 228, 214, 241,
246, 240, 238, 225,
254, 235, 249, 241,
271, 283, 261, 262,
265, 277, 240, 251,
256, 230, 241, 221,
248, 217, 228, 255,
212, 230, 223, 220,
224, 207, 205, 221,
201, 210, 190, 194,
228, 206, 185, 197,
210, 215, 186, 210,
188, 200, 179, 214,
192, 205, 198, 203,
201, 213, 214, 184,
180, 197, 195, 212,
190, 190, 181, 188,
194, 198, 197, 179,
218, 206, 202, 181,
211, 187, 186, 198,
212, 164, 198, 172,
199, 172, 197, 192,
174, 194, 194, 180,
184, 172, 185, 181,
171, 165, 181, 154,
201, 153, 162, 175,
190, 208, 167, 175,
159, 148, 183, 172,
186, 176, 168, 187,
174, 178, 176, 171,
173, 168, 185, 174,
170, 175, 194, 186,
186, 180, 177, 186,
180, 155, 169, 150,
173, 163, 174, 163,
168, 167, 171, 179,
179, 167, 153, 162,
166, 168, 182, 176,
154, 168, 211, 159,
161, 180, 180, 185,
166, 143, 164, 163,
163, 146, 151, 157,
173, 157, 163, 168,
170, 197, 148, 168,
192, 163, 163, 165,
165, 157, 151, 165,
161, 147, 160, 167,
175, 165, 126, 141,
136, 133, 149, 154,
155, 160, 157, 132,
179, 134, 162, 158,
138, 133, 153, 167,
154, 147, 179, 145,
147, 162, 153, 138,
152, 155, 146, 135,
148, 149, 149, 148,
149, 152, 140, 122,
138, 133, 149, 130,
139, 124, 152, 132,
144, 122, 138, 157,
123, 131, 133, 128,
144, 124, 155, 118,
130, 142, 147, 132,
115, 154, 136, 129,
143, 123, 134, 144,
126, 151, 112, 136,
137, 147, 128, 138,
148, 143, 123, 148,
113, 121, 122, 116,
128, 123, 143, 130,
132, 140, 136, 131,
142, 122, 100, 126,
134, 117, 165, 113,
116, 144, 124, 137,
136, 116, 157, 148,
115, 131, 152, 121,
121, 133, 105, 126,
142, 130, 125, 129,
121, 116, 124, 134,
124, 127, 127, 128,
131, 111, 133, 106,
117, 109, 127, 101,
124, 99, 106, 114,
128, 101, 142, 105,
136, 122, 98, 125,
120, 123, 107, 121,
130, 121, 119, 116,
121, 103, 117, 134,
114, 102, 98, 84,
106, 108, 100, 116,
111, 131, 104, 118,
114, 95, 125, 97,
130, 125, 104, 101,
112, 119, 109, 130,
120, 101, 117, 107,
127, 93, 94, 120,
108, 87, 113, 103,
107, 93, 112, 94,
113, 112, 94, 115,
93, 105, 97, 115,
91, 114, 98, 105,
114, 96, 113, 110,
102, 121, 99, 103,
110, 103, 107, 119,
107, 110, 108, 112,
109, 100, 106, 107,
93, 109, 97, 107,
113, 95, 113, 79,
100, 99, 99, 103,
85, 95, 98, 107,
89, 102, 101, 94,
97, 114, 102, 96,
95, 95, 112, 96,
92, 97, 92, 103,
88, 105, 95, 87,
105, 124, 92, 93,
88, 94, 88, 109,
100, 78, 81, 79,
84, 89, 91, 89,
89, 98, 109, 103,
101, 87, 92, 88,
94, 101, 94, 90,
89, 102, 90, 90,
96, 80, 94, 98,
98, 105, 93, 104,
81, 79, 85, 94,
106, 101, 108, 85,
88, 93, 83, 80,
91, 87, 90, 78,
73, 108, 79, 116,
75, 66, 82, 67,
87, 80, 75, 83,
97, 75, 77, 93,
82, 77, 79, 72,
78, 78, 77, 71,
93, 69, 90, 87,
78, 84, 108, 69,
93, 79, 86, 78,
68, 76, 75, 82,
79, 104, 67, 82,
81, 80, 96, 69,
74, 81, 86, 80,
81, 75, 82, 73,
60, 87, 77, 81,
90, 80, 65, 74,
88, 71, 72, 81,
78, 72, 76, 72,
74, 87, 74, 69,
85, 95, 75, 72,
58, 76, 92, 91,
61, 76, 70, 77,
61, 85, 79, 88,
60, 79, 69, 86,
83, 74, 79, 71,
91, 63, 59, 85,
62, 85, 55, 75,
77, 83, 77, 74,
70, 81, 73, 78,
72, 83, 73, 63,
83, 74, 68, 71,
80, 77, 64, 80,
76, 65, 66, 58,
69, 54, 73, 68,
73, 70, 70, 91,
73, 66, 82, 79,
65, 59, 58, 69,
76, 57, 60, 69,
63, 69, 65, 67,
67, 66, 75, 83,
83, 56, 60, 84,
75, 65, 61, 65,
65, 71, 71, 62,
59, 61, 81, 66,
49, 66, 67, 71,
60, 67, 50, 73,
75, 60, 72, 71,
76, 68, 72, 68,
65, 66, 55, 57,
58, 67, 67, 64,
63, 62, 70, 62,
76, 60, 60, 69,
55, 71, 64, 50,
49, 58, 62, 57,
54, 64, 61, 58,
61, 67, 73, 70,
55, 53, 59, 67,
67, 50, 66, 60,
77, 61, 60, 54,
63, 54, 70, 55,
63, 59, 42, 57,
62, 62, 45, 78,
60, 59, 59, 50,
54, 57, 56, 46,
56, 61, 63, 65,
63, 60, 63, 59,
54, 55, 47, 67,
53, 63, 57, 67,
57, 58, 64, 56,
63, 59, 51, 60,
51, 55, 51, 68,
51, 48, 63, 50,
52, 70, 60, 57,
49, 51, 67, 62,
51, 51, 49, 52,
59, 60, 55, 49,
62, 50, 57, 41,
52, 61, 51, 46,
43, 53, 56, 38,
62, 44, 46, 58,
51, 51, 49, 49,
48, 48, 48, 50,
50, 57, 56, 61,
60, 43, 49, 63,
43, 53, 64, 52,
36, 61, 52, 54,
70, 45, 44, 47,
45, 48, 51, 44,
47, 55, 44, 53,
50, 62, 39, 53,
46, 50, 45, 51,
44, 51, 48, 40,
45, 45, 48, 27,
47, 54, 40, 43,
43, 44, 54, 56,
46, 54, 51, 37,
49, 44, 53, 49,
47, 48, 39, 45,
46, 53, 35, 44,
39, 59, 40, 45,
38, 41, 52, 51,
37, 41, 38, 61,
51, 50, 40, 40,
47, 58, 41, 37,
39, 52, 62, 37,
42, 56, 52, 38,
40, 46, 38, 46,
44, 35, 45, 37,
42, 46, 39, 35,
39, 47, 48, 43,
24, 42, 38, 55,
39, 51, 46, 52,
45, 46, 43, 41,
47, 37, 45, 38,
43, 54, 51, 45,
47, 34, 47, 49,
34, 45, 32, 51,
54, 32, 35, 34,
54, 42, 40, 34,
34, 49, 35, 45,
47, 32, 46, 37,
39, 42, 30, 46,
42, 47, 38, 47,
41, 51, 51, 41,
33, 40, 38, 42,
35, 52, 34, 47,
48, 51, 38, 43,
41, 44, 25, 35,
37, 43, 51, 32,
44, 40, 47, 31,
43, 32, 34, 37,
35, 33, 42, 34,
32, 34, 45, 35,
45, 40, 42, 45,
36, 40, 42, 37,
36, 41, 43, 35,
41, 32, 49, 40,
39, 41, 32, 30,
36, 35, 39, 43,
41, 38, 35, 31,
42, 45, 34, 32,
34, 35, 44, 47,
41, 29, 39, 30,
38, 40, 37, 41,
37, 42, 32, 36,
24, 44, 31, 45,
44, 35, 28, 34,
39, 33, 41, 37,
39, 41, 29, 38,
31, 27, 32, 36,
31, 39, 32, 35,
30, 27, 34, 32,
28, 32, 27, 34,
35, 39, 41, 35,
41, 39, 38, 33,
31, 42, 39, 28,
33, 26, 34, 33,
34, 24, 26, 38,
34, 28, 45, 27,
34, 33, 28, 31,
32, 29, 37, 27,
29, 32, 30, 40,
35, 29, 39, 30,
22, 32, 35, 43,
44, 35, 39, 30,
38, 25, 38, 27,
33, 31, 29, 27,
30, 30, 31, 30,
22, 31, 20, 22,
32, 34, 25, 26,
36, 29, 26, 26,
23, 30, 30, 32,
22, 23, 26, 23,
35, 34, 31, 24,
29, 27, 26, 29,
28, 24, 25, 33,
27, 27, 28, 29,
33, 26, 33, 26,
20, 24, 38, 33,
26, 27, 27, 28,
22, 32, 22, 21,
24, 43, 17, 19,
28, 26, 31, 26,
27, 23, 30, 27,
26, 22, 29, 21,
23, 23, 26, 33,
29, 24, 25, 26,
28, 31, 19, 32,
30, 20, 31, 20,
21, 33, 29, 26,
29, 32, 26, 34,
19, 30, 18, 23,
25, 22, 14, 44,
29, 30, 21, 20,
24, 17, 34, 29,
22, 22, 26, 27,
30, 28, 25, 25,
30, 28, 27, 21,
25, 23, 24, 23,
29, 35, 31, 23,
26, 23, 21, 20,
21, 17, 19, 21,
24, 25, 25, 23,
23, 25, 28, 32,
18, 26, 15, 21,
26, 19, 20, 36,
18, 17, 22, 18,
19, 19, 24, 15,
21, 28, 26, 20,
15, 24, 26, 28,
20, 23, 28, 29,
25, 22, 23, 20,
26, 19, 25, 13,
22, 17, 22, 27,
21, 23, 25, 21,
27, 18, 28, 24,
21, 21, 16, 24,
27, 25, 22, 20,
17, 30, 15, 18,
25, 23, 26, 19,
24, 15, 15, 16,
29, 24, 21, 23,
25, 22, 23, 20,
15, 24, 19, 18,
31, 14, 23, 23,
23, 20, 26, 16,
22, 18, 18, 17,
27, 17, 16, 19,
23, 14, 26, 14,
16, 26, 24, 23,
22, 17, 20, 13,
32, 14, 22, 21,
13, 21, 21, 23,
22, 19, 22, 23,
19, 14, 15, 17,
15, 17, 16, 23,
24, 22, 21, 17,
21, 16, 13, 17,
21, 20, 15, 17,
12, 8, 13, 17,
15, 20, 21, 18,
26, 20, 19, 15,
16, 18, 16, 18,
25, 18, 17, 13,
25, 19, 18, 17,
18, 13, 14, 16,
13, 23, 21, 21,
20, 13, 24, 12,
10, 10, 12, 21,
17, 19, 17, 15,
28, 16, 19, 23,
16, 16, 19, 19,
12, 14, 17, 16,
17, 16, 13, 16,
14, 15, 10, 13,
21, 25, 11, 19,
20, 20, 12, 14,
19, 15, 10, 16,
16, 15, 17, 16,
14, 21, 16, 22,
18, 14, 15, 20,
20, 10, 18, 10,
13, 18, 12, 15,
15, 12, 19, 15,
18, 14, 16, 17,
15, 12, 16, 16,
10, 23, 20, 9,
10, 21, 14, 20,
18, 8, 12, 12,
11, 25, 11, 12,
22, 21, 21, 15,
15, 19, 12, 9,
14, 5, 14, 15,
18, 11, 18, 15,
10, 18, 10, 10,
11, 14, 19, 14,
21, 10, 14, 13,
11, 17, 9, 15,
11, 13, 14, 10,
16, 17, 17, 10,
7, 18, 14, 18,
12, 20, 12, 14,
15, 14, 6, 16,
16, 12, 13, 9,
19, 12, 10, 21,
11, 17, 15, 14,
13, 13, 11, 10,
16, 17, 14, 10,
9, 10, 12, 10,
9, 14, 8, 10,
14, 10, 14, 13,
14, 14, 8, 6,
11, 7, 16, 5,
18, 11, 13, 9,
13, 6, 12, 11,
12, 15, 8, 9,
15, 5, 5, 12,
11, 9, 11, 9,
6, 14, 6, 8,
13, 14, 11, 18,
7, 7, 16, 17,
7, 10, 12, 11,
8, 9, 10, 9,
14, 10, 8, 12,
10, 5, 15, 8,
9, 11, 13, 10,
10, 16, 10, 17,
9, 9, 10, 9,
9, 7, 7, 14,
13, 12, 11, 5,
16, 9, 13, 10,
10, 15, 10, 11,
11, 12, 12, 14,
6, 8, 12, 11,
8, 10, 20, 8,
14, 9, 8, 7,
10, 12, 14, 6,
7, 9, 7, 8,
11, 7, 12, 8,
11, 5, 9, 7,
6, 13, 12, 14,
11, 4, 12, 9,
10, 7, 5, 7,
9, 10, 5, 6,
9, 4, 13, 8,
4, 10, 7, 10,
7, 13, 8, 13,
10, 8, 7, 7,
9, 10, 11, 12,
10, 8, 14, 7,
10, 7, 1, 6,
12, 7, 7, 4,
10, 10, 4, 9,
4, 10, 8, 9,
9, 4, 7, 12,
7, 10, 8, 11,
12, 8, 5, 12,
9, 7, 8, 6,
6, 8, 6, 4,
4, 6, 2, 7,
4, 2, 7, 6,
6, 11, 8, 8,
3, 4, 9, 7,
9, 5, 11, 9,
1, 4, 7, 4,
4, 3, 7, 3,
4, 5, 4, 6,
3, 7, 8, 3,
6, 4, 7, 6,
14, 7, 11, 13,
9, 7, 7, 8,
5, 10, 11, 4,
8, 4, 3, 4,
5, 5, 2, 4,
7, 3, 5, 4,
7, 2, 9, 7,
5, 7, 5, 4,
7, 4, 8, 12,
9, 3, 6, 5,
9, 11, 3, 9,
10, 3, 6, 3,
5, 7, 4, 6,
4, 3, 0, 5,
3, 3, 6, 7,
10, 4, 4, 8,
3, 0, 1, 3,
3, 5, 4, 6,
7, 7, 4, 5,
6, 4, 10, 8,
1, 7, 4, 11,
9, 3, 6, 7,
6, 3, 5, 2,
4, 7, 6, 9,
3, 4, 4, 5,
4, 4, 7, 4,
3, 6, 3, 3,
4, 5, 3, 5,
3, 5, 3, 2,
8, 7, 5, 4,
4, 7, 2, 4,
5, 4, 6, 8,
5, 4, 2, 4,
6, 4, 6, 4,
8, 5, 0, 5,
3, 4, 1, 5,
2, 6, 3, 1,
2, 0, 2, 5,
2, 5, 5, 3,
6, 1, 8, 4,
2, 1, 3, 3,
3, 5, 5, 5,
5, 4, 6, 6,
4, 7, 1, 1,
6, 0, 7, 1,
5, 3, 2, 6,
2, 3, 5, 8,
2, 3, 2, 3,
7, 3, 2, 3,
3, 5, 2, 3,
3, 5, 1, 3,
1, 3, 1, 6,
1, 4, 3, 3,
4, 4, 1, 4,
2, 2, 2, 1,
2, 5, 4, 6,
2, 3, 2, 1,
3, 3, 4, 3,
2, 4, 3, 1,
0, 2, 1, 4,
2, 2, 0, 2,
3, 1, 4, 2,
2, 1, 4, 2,
2, 2, 3, 1,
1, 3, 3, 6,
2, 3, 1, 2,
1, 2, 3, 1,
2, 2, 3, 0,
4, 4, 3, 2,
1, 4, 0, 4,
2, 2, 4, 4,
3, 2, 3, 1,
3, 1, 2, 1,
1, 2, 2, 4,
1, 3, 1, 1,
2, 1, 3, 2,
3, 1, 2, 2,
2, 1, 0, 3,
3, 2, 3, 2,
1, 4, 2, 2,
1, 2, 3, 2,
1, 4, 2, 1,
4, 1, 0, 2,
3, 0, 1, 3,
0, 2, 2, 2,
2, 1, 2, 1,
0, 2, 1, 4,
0, 3, 4, 1,
1, 2, 1, 1,
0, 1, 0, 0,
0, 1, 0, 2,
1, 3, 1, 1,
0, 1, 3, 0,
0, 4, 0, 1,
1, 1, 0, 1,
2, 3, 0, 1,
1, 0, 0, 0,
1, 0, 1, 0,
1, 1, 3, 2,
0, 0, 1, 0,
0, 0, 2, 1,
0, 0, 2, 1,
0, 0, 0, 0,
0, 1, 0, 1,
2, 2, 1, 0,
0, 1, 0, 1,
0, 0, 0, 1,
1, 0, 3, 0,
0, 0, 0, 0,
2, 1, 4, 0,
0, 0, 2, 2,
1, 1, 0, 0,
0, 0, 2, 1,
0, 0, 1, 0,
0, 1, 0, 0,
1, 0, 1, 0,
0, 1, 1, 0,
0, 1, 0, 1,
0, 1, 1, 0,
0, 0, 0, 1,
0, 0, 0, 0,
0, 0, 0, 0,
0, 0, 0, 0,
0, 0, 0, 0,
1, 0, 0, 0,
0, 0, 0, 0,
0, 1, 1, 0,
0, 1, 0, 0,
0, 1, 0, 0,
0, 0, 0, 0,
0, 0, 0, 0,
0, 0, 0, 0,
0, 0, 0, 0,
0, 0, 0, 0,
0, 0, 0, 0,
0, 0, 0, 0,
0, 0, 0, 0,
0, 0, 0, 0,
0, 0, 0, 0,
0, 0, 0, 0,
0, 0, 0, 0,
0, 0, 0, 0,
0, 0, 0, 0,
0, 0, 0, 0,
0, 0, 0, 0,
0, 0, 0, 0,
0, 0, 0, 0,
0, 0, 0, 0,
0, 0, 0, 0,
0, 0, 0, 0,
0, 0, 0, 0,
0, 0, 0, 0,
0, 0, 0, 0,
0, 0, 0, 0,
0, 0, 0, 0,
0, 0, 0, 0,
0, 0, 0, 0,
0, 0, 0, 0,
0, 0, 0, 0,
0, 0, 0, 0,
0, 0, 0, 0,
0, 0, 0, 0,
0, 0, 0, 0,
0, 0, 0, 0,
0, 0, 0, 0,
0, 0, 0, 0,
0, 0, 0, 0,
0, 0, 0, 0,
0, 0, 0, 0,
0, 0, 0, 0,
0, 0, 0, 0,
0, 0, 0, 0,
0, 0, 0, 0,
0, 0, 0, 0,
0, 0, 0, 0,
0, 0, 0, 0,
0, 0, 0, 0,
0, 0, 0, 0,
0, 0, 0, 0,
0, 0, 0, 0,
0, 0, 0, 0,
0, 0, 0, 0,
0, 0, 0, 0,
0, 0, 0, 0,
0, 0, 0, 0,
0, 0, 0, 0,
0, 0, 0, 0,
0, 0, 0, 0,
0, 0, 0, 0,
0, 0, 0, 0,
0, 0, 0, 0,
0, 0, 0, 0,
0, 0, 0, 0,
0, 0, 0, 0,
0, 0, 0, 0,
0, 0, 0, 0,
0, 0, 0, 0,
0, 0, 0, 0,
0, 0, 0, 0,
0, 0, 0, 0,
0, 0, 0, 0,
0, 0, 0, 0,
0, 0, 0, 0,
0, 0, 0, 0,
0, 0, 0, 0,
0, 0, 0, 0,
0, 0, 0, 0,
0, 0, 0, 0,
0, 0, 0, 0,
0, 0, 0, 0,
0, 0, 0, 0,
0, 0, 0, 0,
0, 0, 0, 0,
0, 0, 0, 0,
0, 0, 0, 0,
0, 0, 0, 0,
0, 0, 0, 0,
0, 0, 0, 0,
0, 0, 0, 0,
0, 0, 0, 0,
0, 0, 0, 0,
0, 0, 0, 0,
0, 0, 0, 0,
0, 0, 0, 0,
0, 0, 0, 0,
0, 0, 0, 0,
0, 0, 0, 0,
0, 0, 0, 0,
0, 0, 0, 0,
0, 1, 0, 0,
0, 0, 0, 0,
0, 0, 0, 0,
0, 0, 0, 0,
0, 0, 0, 0,
0, 0, 0, 0,
0, 0, 0, 0,
0, 0, 0, 0,
0, 0, 0, 0,
0, 0, 0, 0,
0, 0, 0, 0,
0, 0, 0, 0,
0, 0, 0, 0,
0, 0, 0, 0,
0, 0, 0, 0,
0, 0, 0, 0,
0, 0, 0, 0,
0, 0, 0, 0,
0, 0, 0, 0,
0, 0, 0, 0,
0, 0, 0, 0,
0, 0, 0, 0,
0, 0, 0, 0,
0, 0, 0, 0,
0, 0, 0, 0,
0, 0, 0, 0,
0, 0, 0, 0,
0, 0, 0, 0,
0, 0, 0, 0,
0, 0, 0, 0,
0, 0, 0, 0,
0, 0, 0, 0,
0, 0, 0, 0,
0, 0, 0, 0,
0, 0, 0, 0,
0, 0, 0, 0,
0, 0, 0, 0,
0, 0, 0, 0,
0, 0, 0, 0,
0, 0, 0, 0,
0, 0, 0, 0,
0, 0, 0, 0,
0, 0, 0, 0,
0, 0, 0, 0,
0, 0, 0, 0,
0, 0, 0, 0,
0, 0, 0, 0,
0, 0, 0, 0,
0, 0, 0, 0,
0, 0, 0, 0,
0, 0, 0, 0,
0, 0, 0, 0,
0, 0, 0, 0,
0, 0, 0, 0,
0, 0, 0, 0,
0, 0, 0, 0,
0, 0, 0, 0,
0, 0, 0, 0,
0, 0, 0, 0,
0, 0, 0, 0,
0, 0, 0, 0,
0, 0, 0, 0,
0, 0, 0, 0,
0, 0, 0, 0,
0, 0, 0, 0,
0, 0, 0, 0,
0, 0, 0, 0,
0, 0, 0, 0,
0, 0, 0, 0,
0, 0, 0, 0,
0, 0, 0, 0,
0, 0, 0, 0,
0, 0, 0, 0,
0, 0, 0, 0,
0, 0, 0, 0,
0, 0, 0, 0,
0, 0, 0, 0,
0, 0, 0, 0,
0, 0, 0, 0,
0, 0, 0, 0,
0, 0, 0, 0,
0, 0, 0, 0,
0, 0, 0, 0,
0, 0, 0, 0,
0, 0, 0, 0,
0, 0, 0, 0,
0, 0, 0, 0,
0, 0, 0, 0,
0, 0, 0, 0,
0, 0, 0, 0,
0, 0, 0, 0,
0, 0, 0, 0,
0, 0, 0, 0,
0, 0, 0, 0,
0, 0, 0, 0,
0, 0, 0, 0,
0, 0, 0, 0,
0, 0, 0, 0,
0, 0, 0, 0,
0, 0, 0, 0,
0, 0, 0, 0,
0, 0, 0, 0,
0, 0, 0, 0,
0, 0, 0, 0,
0, 0, 0, 0,
0, 0, 0, 0,
0, 0, 0, 0,
0, 0, 0, 0,
0, 0, 0, 0,
0, 0, 0, 0,
0, 0, 0, 0,
0, 0, 0, 0,
0, 0, 0, 0,
0, 0, 0, 0,
0, 0, 0, 0,
0, 0, 0, 0,
0, 0, 0, 0,
0, 0, 0, 0,
0, 0, 0, 0,
0, 0, 0, 0,
0, 0, 0, 0,
0, 0, 0, 0,
0, 0, 0, 0,
0, 0, 0, 0,
0, 0, 0, 0,
0, 0, 0, 0,
0, 0, 0, 0,
0, 0, 0, 0,
0, 0, 0, 0,
0, 0, 0, 0,
0, 0, 0, 0,
0, 0, 0, 0,
0, 0, 0, 0,
0, 0, 0, 0,
0, 0, 0, 0,
0, 0, 0, 0,
0, 0, 0, 0,
0, 0, 0, 0,
0, 0, 0, 0,
0, 0, 0, 0,
0, 0, 0, 0,
0, 0, 0, 0,
0, 0, 0, 0,
0, 0, 0, 0,
0, 0, 0, 0,
0, 0, 0, 0,
0, 0, 0, 0,
0, 0, 0, 0,
#ENDOFDATA   :