File: dtsa2/DemoSpectra/Benitoite/BaF2 std.msa
#FORMAT      : EMSA/MAS Spectral Data File
#VERSION     : 1.0
#TITLE       : Bruker AXS spectrum BaF2
#DATE        : 29-JUL-2008
#TIME        : 10:31
#OWNER       : Bruker AXS
#NPOINTS     : 4096
#NCOLUMNS    : 4
#XUNITS      : eV
#YUNITS      : counts
#DATATYPE    : Y
#XPERCHAN    : 5.00409
#OFFSET      : -477.824
#BEAMKV      : 15
#SIGNALTYPE  : EDS
#ELEVANGLE   : 40
#AZIMANGLE   : 180
#LIVETIME    : 59.362
#REALTIME    : 63.784
#PROBECUR    : 2.5
#TAUWIND     : 0
#TDEADLYR    : 0.00001
#TACTLYR     : 0.045
#TALWIND     : 0.003
#CHOFFSET    : 0.0
#XLABEL      : Energy (eV)
#YLABEL      : Counts
#EDSDET      : SDDUTW
##D2STDCMP   : BaF2,(F:21.672),(Ba:78.328),5.0
#SPECTRUM    :
0, 0, 0, 0,
0, 0, 0, 0,
0, 0, 0, 0,
0, 0, 0, 0,
0, 0, 0, 0,
0, 0, 0, 0,
0, 0, 0, 0,
0, 0, 0, 0,
0, 0, 0, 0,
0, 0, 0, 0,
0, 0, 0, 0,
0, 0, 0, 0,
0, 0, 0, 0,
0, 0, 0, 0,
0, 0, 0, 0,
0, 0, 0, 0,
0, 0, 0, 0,
0, 0, 0, 0,
0, 0, 0, 0,
0, 0, 0, 0,
2, 1, 17, 65,
176, 568, 1717, 4345,
9480, 19562, 35848, 58754,
86688, 113487, 133553, 141950,
135068, 116436, 90054, 63254,
40232, 22873, 11543, 5056,
1723, 408, 0, 0,
0, 0, 0, 0,
21, 70, 123, 160,
173, 173, 178, 184,
187, 197, 201, 229,
251, 282, 317, 359,
412, 451, 486, 513,
552, 601, 665, 712,
754, 789, 834, 890,
945, 1019, 1098, 1214,
1354, 1529, 1695, 1848,
1967, 2038, 2065, 2001,
1891, 1697, 1481, 1228,
987, 782, 624, 534,
477, 453, 463, 443,
464, 488, 498, 529,
520, 530, 547, 554,
572, 566, 596, 578,
579, 600, 610, 592,
603, 611, 631, 671,
685, 712, 755, 757,
785, 841, 896, 924,
965, 1059, 1111, 1157,
1251, 1349, 1413, 1521,
1542, 1651, 1658, 1741,
1876, 2055, 2280, 2313,
2729, 3266, 3476, 3945,
4275, 4793, 4867, 5248,
5334, 5246, 5515, 5728,
6049, 6758, 7784, 9033,
11172, 13546, 16160, 18895,
21562, 22930, 24545, 24898,
24182, 22321, 19931, 17078,
13803, 11031, 8239, 6197,
4585, 3331, 2531, 2044,
1779, 1663, 1640, 1678,
1794, 1899, 1913, 1980,
1940, 1970, 1767, 1724,
1575, 1474, 1289, 1147,
1060, 927, 831, 751,
711, 671, 658, 632,
581, 593, 589, 563,
568, 588, 525, 526,
541, 577, 556, 627,
609, 665, 666, 676,
747, 841, 852, 957,
1001, 1071, 960, 974,
985, 978, 911, 905,
863, 909, 864, 873,
858, 841, 884, 889,
863, 882, 927, 903,
831, 842, 782, 746,
819, 713, 701, 677,
648, 679, 650, 632,
623, 584, 598, 623,
613, 568, 568, 586,
575, 601, 608, 606,
592, 597, 617, 614,
567, 574, 567, 594,
622, 608, 622, 643,
644, 643, 664, 636,
648, 648, 660, 642,
678, 646, 637, 667,
684, 650, 638, 687,
652, 710, 655, 686,
643, 652, 670, 638,
664, 660, 672, 669,
675, 694, 704, 672,
720, 712, 684, 673,
685, 659, 687, 694,
647, 728, 717, 730,
692, 672, 705, 739,
710, 706, 726, 753,
700, 682, 720, 726,
739, 710, 755, 727,
691, 723, 687, 722,
679, 698, 701, 709,
712, 664, 692, 669,
677, 707, 691, 687,
690, 714, 691, 707,
708, 710, 729, 718,
748, 716, 719, 724,
717, 713, 794, 751,
679, 713, 745, 769,
743, 782, 766, 767,
800, 720, 775, 807,
797, 815, 799, 793,
783, 809, 818, 806,
844, 852, 825, 851,
788, 803, 810, 870,
796, 876, 811, 781,
721, 744, 816, 752,
753, 705, 731, 726,
744, 778, 711, 693,
760, 736, 740, 741,
725, 754, 726, 773,
725, 766, 709, 752,
732, 695, 713, 753,
732, 761, 716, 779,
690, 732, 734, 710,
760, 754, 783, 775,
756, 715, 775, 726,
724, 723, 718, 725,
699, 728, 741, 705,
772, 782, 729, 781,
765, 748, 728, 685,
710, 741, 740, 720,
742, 762, 745, 691,
703, 713, 705, 742,
771, 729, 760, 755,
774, 727, 756, 753,
756, 709, 737, 692,
725, 767, 734, 756,
755, 723, 746, 721,
750, 701, 705, 704,
757, 783, 737, 737,
728, 730, 767, 763,
715, 711, 707, 748,
750, 689, 723, 740,
720, 779, 748, 721,
760, 758, 731, 746,
775, 704, 669, 719,
702, 738, 751, 663,
691, 692, 723, 692,
699, 736, 687, 678,
703, 724, 741, 724,
720, 767, 702, 761,
754, 725, 783, 713,
766, 794, 766, 760,
730, 714, 784, 659,
790, 763, 744, 736,
704, 699, 687, 712,
755, 692, 716, 702,
740, 736, 728, 711,
651, 704, 692, 706,
720, 728, 652, 746,
707, 722, 708, 658,
683, 694, 711, 704,
711, 694, 632, 674,
688, 645, 668, 629,
649, 666, 658, 694,
704, 686, 691, 616,
641, 677, 676, 659,
667, 662, 671, 656,
640, 681, 631, 669,
651, 659, 607, 637,
642, 638, 657, 645,
659, 661, 650, 657,
713, 646, 648, 631,
667, 653, 629, 610,
598, 639, 620, 629,
596, 602, 610, 643,
574, 632, 604, 616,
650, 656, 630, 649,
597, 623, 598, 658,
632, 662, 682, 650,
597, 625, 596, 612,
598, 559, 614, 561,
610, 619, 580, 607,
630, 583, 620, 581,
524, 608, 592, 609,
586, 660, 642, 574,
571, 629, 581, 610,
622, 610, 627, 590,
571, 552, 576, 583,
604, 621, 538, 658,
616, 584, 579, 596,
582, 557, 618, 576,
569, 624, 565, 586,
556, 555, 578, 553,
584, 597, 599, 563,
573, 561, 596, 529,
576, 559, 533, 543,
543, 520, 588, 565,
567, 547, 583, 545,
541, 516, 550, 593,
545, 540, 572, 491,
549, 530, 561, 582,
555, 569, 505, 505,
580, 544, 531, 569,
538, 521, 637, 557,
535, 532, 569, 587,
541, 568, 547, 544,
567, 559, 565, 559,
533, 545, 514, 514,
558, 512, 486, 518,
528, 606, 572, 557,
496, 513, 573, 540,
505, 505, 546, 521,
549, 570, 528, 533,
557, 541, 543, 568,
580, 582, 535, 571,
634, 595, 625, 627,
654, 680, 774, 739,
780, 818, 807, 790,
833, 872, 851, 902,
865, 831, 852, 874,
842, 789, 777, 799,
738, 715, 697, 716,
670, 642, 621, 572,
588, 561, 542, 551,
525, 537, 598, 526,
538, 513, 509, 483,
510, 502, 485, 481,
502, 467, 497, 490,
443, 514, 457, 467,
496, 489, 464, 487,
502, 439, 493, 507,
469, 451, 521, 475,
502, 480, 540, 504,
520, 532, 516, 563,
516, 566, 511, 512,
578, 590, 616, 607,
606, 642, 656, 671,
709, 705, 795, 791,
934, 952, 1105, 1242,
1410, 1562, 1839, 2123,
2299, 2753, 3122, 3643,
4053, 4589, 5195, 5724,
6458, 7265, 7566, 8044,
8586, 9113, 9694, 9796,
9864, 9913, 9964, 9928,
9653, 9167, 8867, 8374,
7700, 7235, 6600, 6006,
5315, 4865, 4189, 3697,
3243, 2683, 2325, 2018,
1828, 1480, 1310, 1108,
945, 874, 765, 745,
650, 596, 560, 552,
501, 476, 475, 475,
466, 494, 467, 462,
480, 481, 493, 463,
509, 535, 510, 562,
588, 615, 645, 721,
777, 832, 1003, 1079,
1224, 1397, 1515, 1733,
1905, 2131, 2372, 2671,
2915, 3171, 3396, 3698,
3936, 4250, 4355, 4657,
4577, 4624, 4710, 4663,
4710, 4531, 4610, 4474,
4248, 4020, 3783, 3593,
3452, 3247, 2987, 2786,
2620, 2469, 2288, 2143,
1965, 1822, 1743, 1640,
1531, 1403, 1307, 1206,
1252, 1102, 1049, 1014,
919, 891, 794, 827,
720, 696, 687, 659,
666, 612, 628, 631,
630, 637, 604, 634,
683, 672, 759, 775,
847, 945, 1053, 1154,
1216, 1216, 1300, 1471,
1514, 1585, 1645, 1757,
1785, 1814, 1791, 1812,
1945, 1846, 1865, 1713,
1729, 1662, 1544, 1537,
1446, 1384, 1221, 1148,
1047, 945, 923, 801,
742, 702, 643, 548,
571, 458, 471, 447,
417, 396, 384, 354,
369, 366, 325, 323,
369, 371, 331, 328,
347, 340, 309, 350,
335, 351, 362, 310,
328, 343, 370, 390,
377, 348, 365, 406,
392, 376, 403, 444,
426, 475, 479, 512,
520, 585, 578, 618,
725, 657, 661, 759,
773, 760, 803, 824,
878, 850, 881, 886,
817, 840, 880, 837,
755, 805, 730, 686,
675, 627, 642, 569,
512, 510, 463, 495,
411, 420, 372, 388,
377, 344, 332, 341,
306, 332, 303, 340,
330, 292, 289, 332,
324, 369, 347, 348,
338, 401, 368, 390,
412, 431, 407, 453,
438, 489, 436, 493,
477, 476, 508, 531,
511, 497, 506, 491,
414, 492, 475, 444,
390, 399, 429, 408,
358, 343, 328, 371,
350, 354, 341, 317,
324, 346, 333, 309,
299, 328, 295, 302,
282, 282, 315, 299,
310, 297, 296, 298,
294, 287, 274, 300,
274, 270, 288, 258,
283, 287, 267, 261,
278, 274, 249, 278,
281, 266, 230, 254,
244, 230, 259, 290,
240, 210, 270, 234,
256, 269, 234, 282,
224, 247, 244, 247,
259, 222, 241, 219,
254, 246, 242, 236,
237, 229, 236, 230,
225, 243, 233, 240,
253, 245, 267, 255,
235, 254, 232, 243,
260, 259, 200, 214,
268, 277, 250, 248,
244, 239, 239, 240,
229, 249, 248, 258,
250, 256, 220, 227,
225, 262, 227, 249,
264, 268, 232, 244,
231, 251, 208, 250,
248, 217, 273, 227,
217, 258, 219, 242,
264, 222, 238, 217,
223, 220, 198, 244,
216, 253, 251, 199,
238, 257, 228, 231,
237, 226, 229, 221,
239, 225, 226, 211,
223, 231, 252, 197,
207, 236, 206, 222,
230, 224, 222, 212,
222, 234, 212, 238,
225, 213, 205, 213,
199, 208, 237, 226,
230, 227, 246, 210,
226, 222, 229, 189,
233, 202, 219, 236,
243, 202, 235, 217,
234, 186, 236, 216,
221, 236, 196, 227,
223, 213, 214, 238,
207, 223, 199, 211,
192, 211, 203, 232,
217, 164, 219, 173,
219, 210, 203, 201,
199, 188, 179, 194,
204, 220, 202, 212,
182, 210, 196, 179,
202, 192, 191, 211,
223, 236, 204, 218,
212, 206, 203, 215,
207, 183, 203, 204,
218, 221, 208, 213,
228, 201, 181, 194,
186, 189, 218, 210,
205, 188, 175, 220,
225, 219, 196, 183,
200, 194, 214, 198,
220, 185, 188, 187,
178, 192, 193, 202,
197, 191, 203, 196,
190, 217, 167, 208,
194, 193, 231, 200,
189, 213, 227, 198,
214, 172, 211, 191,
184, 175, 213, 180,
207, 201, 202, 191,
203, 180, 220, 156,
213, 211, 198, 182,
197, 185, 225, 224,
213, 192, 209, 212,
203, 220, 211, 188,
200, 184, 201, 205,
181, 179, 184, 223,
175, 184, 217, 190,
190, 161, 197, 175,
178, 167, 179, 169,
210, 202, 213, 204,
171, 173, 192, 187,
194, 170, 179, 194,
158, 180, 191, 170,
210, 164, 189, 145,
182, 177, 180, 200,
197, 197, 181, 171,
184, 202, 156, 208,
195, 189, 179, 144,
178, 178, 166, 169,
178, 176, 179, 173,
182, 180, 172, 191,
160, 147, 163, 192,
178, 195, 190, 144,
174, 172, 162, 194,
180, 177, 186, 192,
149, 161, 177, 150,
185, 169, 160, 146,
165, 206, 154, 147,
161, 185, 152, 159,
168, 168, 174, 158,
156, 157, 179, 161,
166, 164, 154, 153,
181, 160, 153, 173,
178, 180, 176, 148,
141, 158, 192, 154,
177, 174, 162, 162,
155, 144, 146, 162,
172, 152, 160, 155,
147, 150, 155, 141,
162, 189, 170, 160,
170, 157, 143, 168,
152, 178, 150, 163,
168, 157, 161, 164,
156, 191, 161, 154,
140, 169, 171, 160,
133, 155, 159, 160,
149, 148, 169, 164,
169, 183, 144, 156,
159, 139, 167, 153,
148, 142, 150, 160,
172, 150, 176, 172,
149, 172, 141, 156,
174, 141, 144, 144,
152, 140, 157, 147,
164, 148, 161, 164,
144, 142, 154, 164,
137, 137, 151, 149,
137, 133, 177, 148,
153, 154, 134, 151,
154, 160, 162, 167,
125, 143, 142, 142,
144, 152, 146, 152,
160, 159, 137, 150,
156, 141, 153, 149,
121, 148, 112, 125,
165, 135, 136, 144,
129, 149, 139, 127,
121, 145, 147, 146,
152, 140, 126, 149,
135, 144, 133, 119,
130, 145, 152, 130,
118, 141, 138, 134,
142, 138, 155, 125,
134, 123, 132, 139,
126, 150, 138, 152,
134, 133, 134, 148,
147, 133, 129, 153,
113, 119, 113, 132,
124, 133, 130, 136,
112, 129, 150, 129,
144, 132, 142, 131,
148, 135, 114, 140,
136, 150, 132, 125,
135, 128, 145, 133,
119, 140, 138, 122,
133, 136, 130, 133,
124, 127, 117, 127,
128, 99, 125, 115,
125, 144, 128, 132,
128, 142, 141, 143,
136, 128, 127, 143,
130, 135, 127, 109,
130, 146, 120, 127,
123, 137, 140, 131,
134, 140, 144, 131,
110, 126, 122, 112,
126, 127, 116, 126,
123, 115, 124, 125,
120, 127, 121, 140,
133, 130, 131, 116,
120, 131, 139, 128,
99, 123, 137, 102,
122, 131, 115, 118,
92, 122, 108, 113,
112, 130, 107, 102,
120, 115, 121, 105,
114, 119, 102, 119,
137, 124, 95, 112,
108, 115, 107, 120,
131, 119, 114, 121,
106, 130, 120, 119,
134, 110, 130, 125,
137, 128, 108, 106,
104, 118, 102, 120,
120, 100, 96, 104,
104, 109, 106, 111,
105, 99, 90, 105,
107, 110, 110, 100,
110, 128, 96, 97,
121, 116, 125, 104,
109, 102, 104, 109,
109, 91, 111, 112,
93, 101, 114, 110,
78, 101, 115, 98,
117, 102, 127, 96,
100, 107, 106, 113,
96, 87, 99, 114,
99, 104, 120, 107,
96, 106, 104, 115,
105, 104, 125, 106,
104, 95, 92, 122,
89, 114, 82, 106,
111, 122, 94, 108,
112, 103, 106, 95,
98, 83, 98, 93,
96, 106, 97, 97,
89, 78, 110, 91,
98, 101, 95, 98,
92, 97, 88, 105,
88, 82, 82, 86,
97, 82, 98, 104,
94, 105, 97, 89,
88, 94, 90, 121,
103, 103, 92, 102,
88, 102, 86, 95,
84, 90, 83, 82,
93, 101, 87, 109,
92, 97, 85, 87,
94, 88, 103, 95,
89, 93, 101, 91,
59, 95, 100, 103,
90, 98, 97, 92,
76, 95, 111, 84,
86, 98, 105, 84,
87, 78, 92, 95,
92, 89, 76, 83,
108, 84, 78, 84,
86, 84, 100, 73,
86, 91, 79, 73,
86, 84, 89, 70,
82, 87, 78, 101,
99, 86, 87, 77,
86, 83, 83, 90,
86, 91, 74, 80,
71, 96, 90, 91,
85, 72, 94, 84,
81, 84, 80, 96,
77, 71, 85, 83,
75, 90, 79, 71,
81, 92, 65, 93,
73, 84, 90, 73,
89, 88, 77, 83,
65, 85, 67, 70,
84, 89, 77, 90,
67, 71, 73, 91,
84, 83, 96, 72,
77, 73, 76, 71,
78, 65, 80, 76,
74, 70, 82, 78,
78, 71, 69, 66,
70, 71, 72, 70,
63, 69, 76, 81,
88, 88, 77, 71,
79, 79, 62, 74,
73, 60, 59, 74,
80, 68, 72, 76,
67, 63, 69, 65,
70, 72, 73, 81,
57, 73, 73, 71,
72, 59, 63, 79,
65, 59, 67, 66,
69, 68, 69, 71,
59, 67, 59, 75,
75, 75, 65, 71,
70, 61, 77, 68,
67, 58, 72, 63,
75, 66, 59, 70,
64, 71, 65, 63,
77, 71, 66, 60,
50, 45, 68, 70,
58, 73, 75, 75,
60, 51, 62, 70,
56, 60, 53, 58,
94, 66, 76, 60,
60, 62, 67, 68,
72, 64, 64, 69,
67, 61, 58, 51,
61, 59, 58, 59,
71, 72, 65, 55,
59, 58, 61, 74,
68, 57, 63, 50,
50, 62, 58, 60,
56, 52, 57, 60,
55, 51, 65, 51,
51, 57, 66, 42,
47, 43, 57, 63,
49, 46, 54, 60,
79, 56, 72, 63,
60, 58, 54, 65,
46, 59, 60, 48,
48, 57, 49, 51,
47, 55, 57, 45,
65, 44, 58, 58,
51, 54, 62, 56,
59, 47, 58, 51,
76, 45, 56, 50,
54, 48, 53, 57,
60, 52, 55, 59,
60, 55, 60, 65,
52, 57, 45, 61,
50, 53, 55, 60,
51, 43, 51, 56,
66, 42, 50, 61,
47, 49, 50, 39,
46, 56, 47, 35,
58, 46, 37, 58,
60, 41, 45, 47,
40, 42, 50, 50,
44, 44, 36, 61,
46, 40, 50, 42,
38, 45, 41, 34,
40, 34, 38, 42,
33, 43, 38, 53,
43, 47, 40, 41,
51, 41, 44, 40,
49, 42, 52, 55,
58, 43, 48, 32,
48, 44, 40, 45,
45, 50, 29, 40,
32, 41, 43, 42,
40, 38, 42, 38,
45, 47, 41, 54,
37, 35, 38, 33,
39, 37, 52, 28,
36, 34, 44, 37,
39, 41, 59, 31,
38, 40, 37, 27,
43, 34, 46, 37,
35, 34, 34, 28,
32, 37, 38, 35,
32, 31, 45, 41,
41, 44, 42, 35,
45, 25, 36, 40,
30, 30, 35, 51,
38, 37, 32, 30,
56, 34, 36, 44,
42, 38, 35, 33,
34, 38, 26, 34,
34, 40, 27, 26,
33, 36, 30, 36,
26, 30, 31, 41,
40, 32, 38, 34,
36, 29, 36, 33,
39, 26, 39, 29,
35, 37, 35, 27,
28, 32, 43, 40,
28, 30, 27, 29,
32, 33, 34, 23,
21, 27, 26, 32,
39, 32, 28, 34,
37, 31, 33, 32,
35, 24, 32, 33,
24, 30, 34, 30,
24, 30, 32, 30,
21, 30, 25, 34,
20, 32, 27, 24,
21, 32, 30, 18,
25, 22, 41, 31,
32, 19, 25, 28,
22, 34, 21, 24,
26, 31, 21, 30,
19, 21, 28, 36,
34, 25, 23, 33,
20, 17, 27, 36,
25, 26, 24, 28,
25, 23, 22, 22,
13, 22, 25, 20,
22, 18, 28, 25,
18, 18, 15, 26,
21, 20, 29, 23,
27, 16, 24, 29,
15, 22, 28, 16,
23, 23, 24, 21,
20, 15, 23, 23,
25, 17, 18, 30,
28, 23, 22, 21,
18, 22, 16, 17,
16, 26, 19, 25,
23, 16, 17, 17,
22, 23, 21, 20,
26, 10, 24, 19,
17, 25, 13, 18,
21, 23, 20, 21,
13, 26, 20, 15,
21, 20, 12, 16,
26, 22, 20, 13,
14, 17, 14, 14,
14, 22, 10, 17,
32, 24, 13, 19,
19, 20, 10, 24,
15, 10, 20, 16,
17, 21, 10, 10,
16, 20, 21, 16,
14, 13, 21, 27,
21, 20, 17, 19,
18, 13, 11, 13,
18, 22, 16, 19,
12, 13, 9, 16,
21, 12, 13, 16,
21, 17, 12, 17,
13, 18, 17, 16,
19, 11, 11, 10,
10, 11, 10, 12,
11, 14, 18, 19,
16, 16, 9, 10,
11, 8, 18, 12,
11, 16, 12, 20,
9, 13, 13, 11,
12, 11, 11, 8,
9, 12, 10, 16,
10, 16, 9, 11,
14, 11, 11, 7,
7, 12, 12, 9,
10, 9, 11, 9,
7, 8, 12, 7,
6, 9, 8, 10,
10, 13, 8, 12,
5, 10, 10, 6,
12, 9, 11, 5,
8, 9, 7, 7,
7, 9, 8, 4,
6, 8, 7, 9,
3, 14, 3, 9,
12, 10, 5, 3,
2, 7, 9, 7,
6, 16, 6, 7,
11, 5, 7, 2,
2, 6, 11, 9,
6, 7, 6, 3,
2, 10, 5, 4,
4, 10, 6, 8,
7, 4, 2, 7,
4, 3, 4, 2,
5, 3, 4, 7,
6, 7, 4, 3,
3, 5, 2, 5,
3, 5, 5, 3,
5, 4, 6, 5,
2, 7, 5, 6,
6, 3, 6, 4,
2, 3, 3, 1,
1, 1, 4, 5,
4, 3, 2, 3,
2, 4, 0, 1,
2, 4, 4, 2,
3, 0, 2, 2,
1, 1, 1, 3,
2, 0, 2, 2,
3, 3, 0, 1,
2, 1, 0, 1,
4, 1, 0, 1,
0, 1, 1, 0,
0, 1, 1, 1,
0, 0, 0, 1,
1, 0, 0, 0,
0, 0, 0, 1,
0, 0, 0, 0,
0, 0, 1, 0,
0, 0, 0, 0,
0, 0, 1, 0,
0, 0, 0, 0,
0, 0, 1, 0,
0, 0, 0, 0,
0, 0, 1, 0,
0, 0, 0, 0,
0, 0, 1, 0,
0, 0, 0, 0,
0, 0, 0, 0,
0, 0, 0, 0,
0, 0, 0, 0,
0, 0, 0, 0,
0, 0, 0, 0,
1, 1, 0, 0,
0, 0, 0, 1,
0, 0, 0, 0,
0, 0, 0, 1,
0, 0, 0, 0,
0, 0, 0, 0,
0, 0, 0, 0,
0, 0, 0, 0,
0, 0, 0, 0,
0, 0, 0, 0,
0, 0, 0, 0,
0, 0, 0, 0,
0, 0, 0, 0,
0, 0, 0, 0,
0, 0, 0, 0,
0, 0, 0, 0,
0, 0, 0, 0,
0, 0, 0, 0,
0, 0, 0, 0,
0, 0, 0, 0,
0, 0, 0, 0,
0, 0, 0, 0,
0, 0, 1, 1,
0, 0, 1, 0,
0, 2, 0, 0,
0, 0, 2, 0,
0, 0, 0, 0,
0, 0, 0, 0,
0, 0, 0, 0,
0, 0, 0, 0,
0, 0, 0, 0,
0, 0, 0, 0,
0, 0, 0, 1,
0, 1, 0, 0,
0, 0, 0, 0,
0, 0, 0, 0,
1, 1, 0, 0,
0, 0, 0, 0,
0, 0, 0, 0,
0, 0, 0, 0,
0, 0, 0, 0,
0, 0, 0, 0,
1, 0, 0, 0,
0, 0, 0, 0,
0, 0, 0, 0,
0, 0, 0, 0,
0, 0, 0, 0,
0, 0, 0, 0,
0, 0, 0, 0,
0, 0, 0, 0,
0, 0, 0, 0,
0, 1, 0, 0,
0, 0, 0, 0,
0, 0, 0, 0,
0, 0, 0, 0,
0, 0, 0, 0,
0, 0, 0, 0,
0, 0, 0, 0,
0, 0, 0, 0,
0, 0, 0, 0,
0, 0, 0, 0,
0, 0, 0, 0,
0, 0, 0, 1,
0, 0, 0, 0,
0, 0, 1, 0,
0, 0, 0, 0,
0, 1, 0, 0,
0, 0, 0, 0,
0, 1, 0, 0,
0, 0, 0, 0,
0, 0, 0, 0,
0, 0, 0, 0,
0, 0, 0, 0,
1, 0, 0, 0,
0, 0, 0, 0,
0, 0, 0, 0,
0, 0, 0, 1,
0, 0, 0, 0,
0, 0, 0, 0,
0, 0, 0, 0,
0, 0, 0, 0,
1, 0, 0, 0,
0, 0, 0, 0,
0, 0, 0, 0,
0, 0, 0, 1,
0, 0, 0, 0,
0, 0, 0, 0,
0, 0, 0, 0,
0, 0, 0, 0,
0, 0, 0, 0,
0, 0, 0, 1,
0, 0, 0, 0,
0, 0, 0, 0,
0, 0, 0, 0,
0, 0, 0, 0,
0, 0, 0, 0,
0, 0, 0, 0,
0, 0, 0, 0,
0, 0, 0, 0,
0, 0, 0, 0,
0, 0, 0, 0,
0, 0, 0, 0,
0, 0, 0, 0,
0, 0, 0, 0,
0, 0, 0, 0,
0, 0, 0, 0,
0, 0, 0, 0,
0, 0, 0, 0,
0, 0, 0, 0,
0, 0, 0, 0,
0, 0, 0, 0,
0, 0, 0, 0,
0, 0, 0, 0,
0, 0, 0, 0,
0, 0, 0, 0,
0, 0, 0, 0,
0, 0, 0, 0,
0, 0, 0, 0,
0, 0, 1, 0,
0, 0, 0, 0,
0, 0, 0, 0,
0, 0, 0, 0,
0, 0, 0, 0,
0, 0, 0, 0,
0, 1, 0, 0,
0, 0, 0, 0,
0, 0, 0, 0,
0, 0, 0, 0,
0, 0, 0, 0,
0, 0, 0, 0,
0, 0, 0, 0,
0, 0, 0, 0,
0, 0, 0, 0,
0, 0, 0, 0,
0, 0, 0, 0,
0, 0, 0, 0,
0, 0, 0, 0,
0, 0, 0, 0,
0, 0, 0, 0,
0, 0, 0, 0,
0, 0, 0, 0,
0, 0, 0, 0,
0, 0, 0, 0,
0, 0, 0, 0,
0, 0, 0, 0,
0, 0, 0, 0,
0, 0, 0, 0,
0, 0, 0, 0,
0, 0, 1, 0,
0, 0, 0, 0,
0, 0, 0, 0,
0, 0, 0, 0,
0, 0, 0, 0,
0, 0, 0, 0,
0, 0, 0, 0,
0, 0, 0, 0,
0, 0, 0, 0,
0, 0, 0, 0,
0, 0, 0, 0,
0, 1, 0, 0,
0, 0, 0, 0,
0, 0, 0, 0,
0, 0, 0, 0,
0, 0, 0, 0,
0, 0, 0, 1,
0, 0, 0, 0,
0, 1, 0, 0,
0, 0, 0, 0,
0, 0, 0, 0,
0, 0, 0, 0,
0, 0, 0, 0,
0, 0, 0, 0,
0, 0, 0, 0,
0, 0, 0, 0,
0, 0, 0, 0,
0, 0, 0, 0,
0, 0, 0, 0,
0, 0, 0, 0,
0, 0, 0, 0,
0, 0, 0, 0,
0, 0, 0, 0,
0, 0, 0, 0,
0, 0, 0, 0,
0, 0, 0, 0,
0, 0, 0, 0,
0, 0, 0, 0,
0, 0, 0, 0,
0, 0, 0, 0,
0, 0, 0, 0,
0, 0, 0, 0,
0, 0, 0, 0,
0, 0, 0, 0,
0, 0, 0, 0,
0, 0, 0, 0,
0, 0, 0, 0,
0, 0, 0, 0,
0, 0, 0, 0,
0, 0, 0, 0,
0, 0, 0, 0,
0, 0, 0, 0,
0, 0, 0, 0,
0, 0, 0, 0,
0, 0, 0, 0,
0, 0, 0, 0,
0, 0, 0, 0,
0, 0, 0, 0,
0, 0, 0, 0,
0, 0, 0, 0,
0, 0, 0, 0,
0, 0, 0, 0,
0, 0, 0, 0,
0, 0, 0, 0,
0, 0, 0, 0,
0, 0, 0, 0,
0, 0, 0, 0,
0, 0, 0, 0,
0, 0, 0, 0,
0, 0, 0, 0,
0, 0, 0, 0,
0, 0, 0, 0,
0, 0, 0, 0,
0, 0, 0, 0,
0, 0, 0, 0,
0, 0, 0, 0,
0, 0, 0, 0,
0, 0, 0, 0,
0, 0, 0, 0,
0, 0, 0, 0,
#ENDOFDATA   :