File: dtsa2/DemoSpectra/Benitoite/Benitoite std.msa
#FORMAT      : EMSA/MAS Spectral Data File
#VERSION     : 1.0
#TITLE       : Bruker AXS spectrum Benitoite
#DATE        : 29-JUL-2008
#TIME        : 11:14
#OWNER       : Bruker AXS
#NPOINTS     : 4096
#NCOLUMNS    : 4
#XUNITS      : eV
#YUNITS      : counts
#DATATYPE    : Y
#XPERCHAN    : 5.00409
#OFFSET      : -477.824
#BEAMKV      : 15
#SIGNALTYPE  : EDS
#ELEVANGLE   : 40
#AZIMANGLE   : 180
#LIVETIME    : 59.351
#REALTIME    : 63.186
#PROBECUR    : 2.5
#TAUWIND     : 0
#TDEADLYR    : 0.00001
#TACTLYR     : 0.045
#TALWIND     : 0.003
#CHOFFSET    : 0.0
#XLABEL      : Energy (eV)
#YLABEL      : Counts
#EDSDET      : SDDUTW
##D2STDCMP   : Benitoite,(O:34.828),(Si:20.3791),(Ti:11.5776),(Ba:33.2153),5.0
#SPECTRUM    :
0, 0, 0, 0,
0, 0, 0, 0,
0, 0, 0, 0,
0, 0, 0, 0,
0, 0, 0, 0,
0, 0, 0, 0,
0, 0, 0, 0,
0, 0, 0, 0,
0, 0, 0, 0,
0, 0, 0, 0,
0, 0, 0, 0,
0, 0, 0, 0,
0, 0, 0, 0,
0, 0, 0, 0,
0, 0, 0, 0,
0, 0, 0, 0,
0, 0, 0, 0,
0, 0, 0, 0,
0, 0, 0, 0,
0, 0, 0, 0,
0, 4, 17, 52,
154, 467, 1294, 3418,
7511, 15628, 28078, 46141,
67532, 89227, 105143, 111355,
106102, 91570, 70671, 49931,
31564, 17930, 9223, 4010,
1412, 319, 0, 0,
0, 0, 0, 0,
8, 33, 61, 80,
85, 83, 77, 76,
79, 81, 89, 89,
88, 84, 88, 92,
99, 104, 108, 113,
121, 130, 144, 154,
166, 180, 196, 212,
233, 261, 300, 350,
405, 468, 528, 590,
636, 662, 668, 654,
625, 571, 511, 426,
354, 305, 264, 249,
233, 242, 257, 277,
306, 357, 404, 426,
478, 545, 610, 678,
710, 784, 808, 860,
864, 874, 866, 881,
904, 964, 1055, 1142,
1259, 1373, 1465, 1668,
2010, 2486, 3078, 3937,
5023, 6619, 8424, 10694,
12773, 14685, 16552, 17974,
18404, 17747, 16358, 14262,
12159, 9630, 7006, 4964,
3542, 2566, 1655, 1239,
909, 884, 807, 818,
760, 741, 697, 623,
502, 522, 447, 427,
367, 354, 330, 341,
356, 378, 358, 345,
354, 322, 320, 360,
384, 401, 399, 418,
409, 461, 459, 548,
574, 603, 711, 751,
775, 845, 809, 869,
882, 826, 870, 806,
812, 780, 731, 699,
684, 604, 595, 553,
551, 464, 480, 469,
457, 430, 470, 453,
440, 470, 452, 417,
447, 472, 449, 500,
490, 500, 522, 546,
534, 523, 628, 694,
690, 701, 721, 619,
722, 658, 693, 716,
697, 626, 644, 653,
628, 691, 692, 678,
661, 654, 721, 699,
684, 693, 592, 538,
588, 565, 596, 549,
567, 544, 548, 535,
522, 497, 565, 555,
514, 525, 528, 494,
511, 521, 549, 554,
530, 544, 515, 522,
547, 580, 590, 544,
551, 500, 589, 533,
547, 602, 572, 545,
553, 604, 571, 582,
510, 588, 573, 556,
552, 575, 556, 576,
567, 597, 579, 573,
583, 553, 589, 542,
576, 563, 617, 614,
598, 603, 601, 593,
623, 616, 576, 599,
631, 635, 641, 568,
604, 622, 595, 653,
657, 598, 621, 637,
641, 577, 622, 632,
651, 675, 661, 624,
631, 674, 651, 698,
636, 679, 672, 652,
676, 633, 664, 644,
639, 647, 647, 677,
654, 628, 637, 645,
651, 722, 657, 702,
771, 816, 988, 1123,
1400, 1780, 2271, 2808,
3718, 4656, 5901, 7298,
8879, 10712, 12434, 14181,
15856, 17227, 18049, 18644,
19038, 18645, 18033, 16786,
15545, 13787, 12214, 10328,
8720, 7315, 5893, 4876,
4072, 3219, 2636, 2290,
1975, 1644, 1554, 1431,
1334, 1198, 1209, 1069,
951, 910, 799, 763,
707, 679, 589, 577,
567, 565, 519, 496,
492, 454, 490, 485,
493, 484, 474, 488,
464, 500, 488, 489,
498, 444, 490, 489,
469, 514, 459, 510,
497, 436, 460, 480,
473, 446, 479, 503,
461, 491, 478, 498,
513, 471, 492, 491,
481, 461, 449, 474,
470, 475, 475, 472,
500, 508, 473, 489,
470, 460, 448, 482,
503, 474, 456, 506,
474, 493, 458, 499,
465, 505, 499, 463,
470, 450, 505, 466,
489, 477, 476, 441,
465, 464, 470, 491,
466, 439, 413, 497,
475, 478, 473, 447,
454, 466, 501, 469,
474, 438, 450, 438,
467, 489, 481, 480,
469, 439, 488, 435,
463, 445, 426, 442,
459, 442, 436, 487,
435, 481, 428, 404,
489, 466, 422, 458,
431, 451, 452, 465,
403, 421, 417, 435,
441, 425, 401, 467,
409, 451, 435, 416,
422, 400, 444, 413,
452, 450, 436, 417,
438, 435, 427, 404,
415, 440, 422, 445,
430, 444, 453, 408,
474, 420, 435, 451,
400, 481, 427, 445,
458, 429, 433, 399,
428, 441, 395, 479,
425, 465, 397, 450,
442, 433, 457, 419,
431, 423, 416, 396,
439, 409, 441, 397,
442, 388, 400, 412,
398, 413, 388, 440,
416, 418, 456, 409,
415, 379, 412, 394,
367, 408, 396, 388,
399, 407, 386, 400,
378, 423, 367, 416,
382, 386, 369, 373,
430, 409, 386, 372,
392, 376, 428, 418,
402, 376, 381, 370,
358, 379, 399, 356,
394, 388, 382, 400,
401, 390, 405, 387,
386, 374, 379, 375,
377, 376, 357, 390,
405, 414, 378, 357,
330, 359, 344, 360,
370, 367, 402, 406,
377, 377, 370, 331,
358, 356, 353, 355,
357, 395, 384, 362,
366, 351, 352, 354,
355, 351, 400, 362,
370, 411, 364, 367,
342, 329, 327, 335,
345, 345, 342, 319,
339, 341, 325, 346,
383, 341, 360, 348,
339, 334, 335, 375,
320, 353, 384, 385,
339, 311, 297, 317,
355, 370, 372, 368,
323, 315, 353, 339,
349, 341, 340, 348,
340, 354, 304, 321,
335, 336, 334, 361,
317, 310, 312, 313,
330, 322, 305, 333,
317, 350, 345, 304,
313, 324, 340, 337,
293, 320, 305, 321,
319, 309, 289, 363,
296, 317, 334, 333,
353, 319, 335, 330,
322, 302, 322, 311,
326, 320, 332, 306,
277, 322, 304, 305,
323, 318, 342, 314,
298, 311, 316, 323,
313, 306, 336, 334,
330, 311, 349, 351,
368, 336, 353, 323,
352, 355, 385, 379,
358, 406, 424, 429,
448, 454, 426, 429,
464, 464, 449, 411,
369, 379, 383, 388,
358, 415, 339, 374,
352, 333, 334, 334,
329, 308, 330, 311,
267, 275, 290, 294,
315, 293, 297, 331,
296, 292, 312, 295,
305, 290, 272, 269,
277, 270, 256, 289,
260, 277, 296, 291,
291, 277, 260, 292,
271, 250, 269, 316,
252, 289, 272, 292,
270, 282, 324, 312,
273, 317, 315, 301,
292, 319, 318, 322,
316, 351, 350, 341,
391, 353, 393, 439,
464, 481, 546, 561,
597, 761, 789, 889,
1015, 1282, 1399, 1645,
1846, 2103, 2347, 2674,
3009, 3284, 3696, 4144,
4264, 4676, 5031, 5230,
5669, 5908, 6074, 6126,
6239, 6374, 6166, 6108,
6071, 5747, 5664, 5415,
5077, 4919, 4476, 4103,
3751, 3400, 3214, 2742,
2433, 2154, 1927, 1696,
1422, 1229, 1051, 961,
783, 678, 633, 531,
512, 435, 355, 352,
315, 308, 335, 294,
276, 278, 289, 261,
270, 271, 281, 291,
284, 307, 339, 336,
382, 416, 453, 470,
521, 554, 623, 690,
769, 898, 958, 1046,
1163, 1236, 1315, 1481,
1583, 1581, 1635, 1751,
1814, 1881, 1908, 1891,
1853, 1942, 1878, 1750,
1762, 1708, 1656, 1583,
1628, 1514, 1453, 1449,
1337, 1313, 1295, 1224,
1241, 1139, 1117, 1064,
1082, 966, 937, 898,
885, 809, 741, 732,
629, 609, 601, 568,
481, 459, 445, 434,
401, 359, 376, 344,
338, 327, 303, 295,
307, 353, 369, 353,
383, 405, 440, 470,
507, 497, 555, 587,
593, 674, 652, 695,
679, 767, 711, 754,
672, 745, 714, 699,
690, 686, 662, 634,
532, 581, 496, 506,
478, 402, 394, 380,
343, 310, 311, 284,
246, 257, 260, 242,
232, 218, 199, 247,
226, 197, 206, 194,
186, 203, 224, 203,
216, 197, 160, 215,
182, 193, 194, 174,
187, 197, 192, 216,
194, 165, 198, 214,
205, 221, 184, 220,
227, 221, 238, 280,
264, 282, 273, 287,
306, 305, 327, 364,
330, 378, 367, 374,
352, 364, 395, 389,
385, 367, 349, 331,
391, 318, 350, 341,
347, 309, 294, 296,
272, 228, 218, 189,
212, 223, 207, 167,
188, 171, 187, 172,
192, 181, 190, 172,
201, 180, 178, 200,
202, 205, 175, 228,
191, 198, 194, 211,
207, 205, 211, 216,
243, 220, 224, 252,
241, 230, 214, 262,
251, 241, 246, 243,
219, 259, 221, 202,
197, 208, 185, 204,
190, 193, 175, 195,
166, 189, 188, 192,
183, 163, 185, 173,
164, 169, 187, 166,
163, 147, 159, 166,
190, 154, 146, 137,
153, 147, 165, 157,
156, 170, 153, 165,
168, 131, 149, 168,
142, 157, 141, 146,
150, 147, 166, 143,
141, 156, 127, 183,
135, 140, 146, 155,
145, 165, 150, 132,
150, 156, 164, 131,
134, 150, 133, 149,
118, 157, 134, 142,
155, 154, 130, 148,
123, 127, 149, 139,
151, 149, 153, 138,
129, 165, 154, 133,
133, 136, 142, 114,
133, 123, 151, 131,
148, 121, 133, 135,
156, 134, 124, 136,
148, 138, 132, 130,
128, 138, 136, 142,
142, 129, 142, 153,
137, 125, 117, 132,
138, 137, 118, 138,
141, 128, 131, 133,
144, 134, 128, 137,
142, 138, 116, 146,
104, 135, 141, 136,
138, 142, 147, 134,
115, 143, 136, 122,
110, 123, 136, 131,
120, 123, 121, 122,
115, 108, 117, 109,
147, 130, 133, 119,
118, 132, 120, 136,
131, 122, 128, 130,
122, 126, 136, 112,
135, 121, 120, 143,
96, 136, 114, 110,
122, 123, 140, 126,
135, 109, 112, 129,
132, 121, 133, 110,
103, 115, 113, 125,
112, 124, 130, 114,
137, 134, 128, 111,
130, 114, 114, 134,
128, 128, 115, 103,
139, 134, 131, 129,
118, 131, 125, 111,
117, 103, 105, 123,
113, 99, 107, 99,
124, 127, 114, 106,
115, 102, 101, 115,
110, 109, 98, 122,
117, 113, 119, 111,
109, 113, 97, 104,
120, 130, 114, 110,
115, 119, 107, 139,
101, 111, 116, 110,
108, 108, 121, 93,
131, 110, 94, 108,
108, 113, 105, 112,
120, 106, 134, 114,
105, 106, 119, 109,
95, 108, 118, 104,
116, 107, 109, 103,
99, 96, 114, 89,
100, 106, 118, 119,
122, 90, 112, 115,
120, 87, 123, 108,
128, 117, 110, 132,
99, 90, 109, 142,
112, 118, 117, 99,
117, 98, 108, 129,
121, 116, 118, 98,
106, 109, 88, 91,
122, 91, 95, 122,
81, 109, 102, 89,
91, 94, 91, 117,
98, 101, 93, 111,
108, 94, 98, 96,
93, 84, 100, 101,
94, 90, 97, 89,
116, 110, 83, 116,
111, 96, 101, 97,
120, 94, 99, 109,
110, 100, 92, 105,
104, 91, 95, 93,
99, 105, 89, 86,
106, 100, 97, 102,
92, 85, 103, 92,
86, 81, 91, 109,
85, 94, 76, 99,
78, 93, 97, 113,
85, 91, 102, 79,
103, 83, 89, 112,
97, 101, 88, 80,
93, 94, 98, 111,
88, 120, 90, 81,
89, 93, 85, 99,
102, 98, 101, 119,
78, 101, 77, 118,
90, 101, 111, 97,
89, 88, 79, 84,
84, 83, 81, 103,
81, 91, 88, 82,
82, 110, 94, 84,
95, 83, 86, 82,
88, 75, 93, 90,
107, 103, 96, 94,
87, 82, 85, 97,
80, 72, 86, 82,
73, 102, 91, 82,
78, 91, 93, 96,
80, 91, 81, 71,
82, 84, 82, 76,
81, 96, 89, 77,
83, 79, 81, 71,
89, 85, 79, 85,
94, 78, 81, 91,
82, 84, 80, 99,
95, 81, 74, 81,
90, 66, 80, 80,
73, 80, 95, 78,
80, 69, 85, 87,
84, 76, 93, 80,
73, 89, 77, 85,
77, 77, 65, 68,
77, 81, 79, 92,
70, 75, 82, 75,
87, 61, 64, 83,
86, 71, 68, 80,
96, 83, 73, 80,
79, 69, 73, 90,
76, 69, 83, 87,
87, 87, 79, 81,
80, 75, 91, 75,
65, 63, 70, 63,
74, 76, 68, 83,
65, 70, 89, 68,
80, 76, 73, 76,
76, 85, 61, 58,
73, 67, 64, 78,
55, 54, 65, 69,
76, 69, 87, 87,
88, 84, 65, 75,
91, 72, 94, 75,
72, 60, 74, 75,
88, 61, 73, 65,
70, 61, 71, 59,
72, 78, 75, 59,
69, 77, 63, 72,
72, 68, 54, 76,
76, 65, 63, 73,
56, 66, 71, 75,
73, 71, 68, 51,
55, 80, 73, 71,
65, 49, 64, 63,
62, 80, 65, 71,
91, 78, 81, 54,
65, 71, 69, 70,
78, 58, 63, 58,
58, 75, 74, 76,
71, 66, 81, 57,
64, 66, 68, 67,
58, 47, 64, 62,
38, 70, 51, 60,
59, 63, 67, 56,
62, 56, 81, 69,
75, 66, 58, 66,
47, 73, 55, 58,
59, 53, 60, 64,
68, 63, 65, 63,
61, 54, 59, 70,
57, 55, 54, 54,
61, 58, 49, 58,
49, 72, 43, 51,
59, 61, 62, 61,
47, 58, 61, 69,
60, 58, 58, 59,
65, 48, 66, 59,
55, 40, 48, 46,
43, 53, 65, 51,
66, 60, 53, 65,
58, 56, 57, 53,
63, 51, 61, 60,
47, 61, 58, 61,
54, 60, 51, 53,
50, 47, 49, 43,
52, 49, 61, 51,
49, 48, 54, 45,
45, 52, 50, 39,
42, 61, 49, 66,
42, 63, 63, 46,
46, 49, 55, 43,
57, 47, 46, 57,
45, 50, 57, 62,
72, 58, 51, 59,
54, 59, 54, 63,
45, 58, 45, 49,
73, 49, 33, 53,
50, 41, 42, 53,
45, 39, 58, 61,
55, 55, 69, 60,
47, 55, 40, 52,
64, 61, 64, 49,
41, 48, 53, 45,
42, 49, 50, 55,
51, 47, 57, 58,
48, 47, 58, 44,
52, 45, 61, 53,
53, 43, 39, 52,
45, 52, 46, 48,
63, 45, 48, 52,
39, 65, 57, 52,
46, 50, 51, 50,
45, 41, 58, 56,
40, 46, 38, 42,
63, 55, 47, 51,
56, 53, 51, 45,
47, 42, 49, 42,
44, 44, 52, 46,
40, 32, 43, 44,
53, 44, 46, 41,
30, 46, 39, 39,
51, 42, 42, 48,
51, 30, 51, 49,
49, 41, 45, 46,
54, 34, 47, 42,
43, 42, 48, 45,
40, 50, 38, 48,
48, 32, 43, 48,
39, 33, 41, 52,
47, 36, 38, 45,
39, 36, 54, 39,
44, 43, 45, 39,
37, 49, 46, 39,
38, 41, 40, 51,
42, 37, 40, 38,
47, 27, 39, 43,
38, 40, 42, 37,
45, 42, 39, 32,
29, 30, 39, 40,
34, 33, 30, 52,
37, 39, 42, 41,
38, 37, 36, 38,
31, 35, 38, 36,
28, 28, 42, 49,
36, 48, 34, 38,
31, 38, 32, 49,
39, 33, 32, 31,
38, 38, 44, 35,
42, 45, 34, 29,
27, 35, 24, 53,
39, 35, 27, 35,
38, 37, 35, 32,
28, 32, 41, 37,
41, 37, 30, 34,
36, 33, 33, 25,
38, 38, 39, 26,
29, 35, 28, 29,
40, 38, 39, 38,
43, 36, 37, 30,
27, 25, 39, 26,
30, 37, 35, 34,
41, 36, 39, 30,
34, 38, 38, 25,
37, 32, 35, 32,
33, 27, 30, 32,
25, 32, 28, 31,
26, 27, 31, 23,
41, 35, 25, 37,
27, 26, 32, 36,
34, 26, 21, 34,
33, 29, 32, 32,
30, 19, 33, 25,
35, 29, 22, 32,
32, 40, 18, 27,
41, 28, 22, 33,
41, 27, 30, 24,
23, 34, 27, 35,
34, 28, 29, 31,
22, 31, 25, 32,
20, 29, 30, 23,
22, 31, 33, 22,
44, 32, 28, 20,
31, 23, 28, 26,
32, 26, 14, 29,
25, 29, 23, 23,
21, 21, 25, 23,
36, 28, 31, 24,
34, 25, 28, 26,
31, 18, 24, 30,
28, 21, 29, 27,
26, 24, 24, 19,
20, 17, 21, 28,
25, 34, 23, 14,
31, 28, 30, 24,
31, 29, 14, 22,
20, 22, 17, 22,
24, 31, 25, 17,
25, 29, 32, 22,
18, 22, 26, 24,
26, 24, 19, 19,
23, 32, 30, 14,
31, 27, 20, 21,
22, 20, 17, 23,
22, 21, 15, 22,
22, 27, 25, 23,
28, 19, 16, 14,
28, 28, 16, 17,
14, 16, 23, 19,
24, 29, 26, 26,
22, 23, 20, 13,
20, 24, 20, 17,
21, 23, 29, 16,
24, 20, 31, 14,
25, 17, 22, 15,
21, 15, 16, 19,
28, 23, 18, 27,
32, 15, 17, 27,
24, 18, 18, 21,
17, 20, 19, 16,
15, 17, 23, 26,
15, 18, 22, 16,
27, 24, 20, 18,
20, 23, 12, 17,
21, 14, 19, 15,
19, 12, 20, 20,
14, 23, 20, 17,
15, 14, 9, 16,
15, 10, 23, 14,
17, 22, 21, 21,
13, 14, 18, 9,
15, 11, 14, 20,
14, 10, 19, 22,
28, 13, 17, 14,
21, 17, 12, 15,
14, 19, 17, 24,
26, 15, 16, 11,
19, 18, 16, 19,
17, 21, 17, 11,
18, 15, 14, 11,
17, 16, 12, 17,
14, 19, 13, 17,
17, 17, 23, 9,
7, 16, 14, 9,
19, 17, 8, 16,
10, 18, 12, 13,
15, 11, 6, 16,
7, 12, 11, 11,
17, 14, 18, 11,
9, 9, 15, 12,
12, 16, 13, 14,
11, 14, 11, 8,
21, 16, 11, 15,
14, 13, 10, 18,
15, 12, 9, 11,
17, 14, 17, 10,
14, 17, 11, 16,
20, 7, 14, 11,
6, 11, 16, 10,
16, 7, 15, 10,
12, 6, 7, 8,
15, 16, 11, 13,
8, 11, 15, 12,
12, 12, 11, 12,
7, 13, 12, 12,
18, 12, 11, 8,
11, 11, 5, 15,
16, 13, 13, 9,
9, 8, 3, 10,
10, 11, 8, 6,
8, 18, 6, 12,
7, 10, 8, 10,
16, 14, 11, 9,
8, 14, 8, 14,
18, 7, 5, 10,
6, 11, 9, 6,
15, 4, 9, 11,
7, 11, 10, 8,
9, 12, 7, 10,
6, 5, 11, 16,
8, 10, 10, 8,
11, 6, 5, 9,
8, 8, 6, 12,
4, 5, 10, 8,
7, 10, 10, 7,
6, 3, 5, 11,
9, 7, 2, 6,
8, 8, 9, 13,
8, 5, 11, 6,
7, 9, 13, 6,
13, 10, 6, 8,
6, 6, 3, 6,
8, 7, 7, 10,
8, 10, 5, 5,
4, 5, 10, 11,
4, 8, 5, 8,
7, 5, 5, 4,
5, 8, 7, 6,
10, 5, 6, 6,
5, 8, 10, 5,
5, 7, 3, 8,
8, 7, 2, 5,
12, 8, 6, 4,
3, 4, 6, 6,
7, 7, 2, 5,
6, 6, 2, 7,
7, 8, 5, 5,
7, 3, 3, 6,
8, 3, 5, 2,
5, 4, 6, 5,
8, 10, 4, 7,
3, 1, 2, 4,
3, 3, 5, 9,
2, 4, 3, 0,
6, 3, 2, 1,
5, 1, 4, 3,
2, 2, 1, 1,
4, 5, 2, 3,
5, 3, 6, 8,
2, 4, 6, 8,
2, 6, 3, 5,
3, 5, 3, 4,
4, 3, 4, 4,
3, 2, 4, 3,
1, 5, 3, 3,
4, 3, 4, 3,
1, 0, 2, 1,
3, 3, 3, 1,
0, 4, 6, 4,
2, 1, 4, 1,
0, 1, 1, 2,
8, 4, 3, 4,
1, 2, 1, 1,
3, 2, 2, 1,
3, 3, 0, 2,
2, 1, 0, 3,
3, 3, 3, 1,
3, 2, 1, 1,
3, 0, 0, 1,
1, 3, 2, 1,
1, 0, 2, 0,
2, 0, 1, 0,
2, 1, 0, 0,
0, 0, 1, 2,
0, 0, 1, 0,
2, 0, 1, 1,
0, 0, 1, 1,
1, 0, 0, 0,
0, 0, 0, 0,
1, 0, 0, 0,
0, 0, 0, 0,
0, 0, 0, 1,
0, 0, 0, 0,
0, 0, 0, 0,
0, 0, 0, 0,
0, 0, 0, 0,
0, 0, 0, 0,
0, 0, 0, 0,
0, 0, 0, 0,
0, 0, 0, 0,
0, 0, 0, 0,
1, 0, 0, 0,
0, 0, 0, 0,
0, 0, 0, 0,
0, 0, 0, 0,
0, 0, 0, 0,
0, 0, 0, 0,
0, 0, 0, 0,
0, 0, 0, 0,
0, 0, 0, 0,
0, 0, 0, 0,
0, 0, 0, 0,
0, 0, 0, 0,
0, 0, 0, 0,
0, 0, 0, 0,
0, 0, 0, 0,
0, 0, 1, 0,
0, 0, 0, 0,
0, 0, 0, 0,
0, 0, 0, 0,
0, 0, 0, 0,
0, 0, 0, 0,
0, 0, 0, 0,
0, 1, 0, 0,
0, 0, 0, 1,
0, 0, 0, 0,
0, 0, 0, 0,
0, 0, 0, 0,
0, 0, 0, 0,
0, 0, 0, 0,
0, 0, 0, 0,
0, 0, 0, 0,
0, 0, 0, 0,
0, 0, 0, 0,
0, 0, 0, 0,
0, 0, 0, 0,
0, 0, 0, 1,
0, 0, 0, 0,
0, 0, 0, 0,
0, 0, 0, 0,
0, 0, 0, 0,
0, 0, 0, 0,
0, 0, 0, 0,
0, 0, 0, 0,
0, 0, 0, 0,
0, 0, 0, 0,
0, 0, 0, 0,
0, 0, 0, 0,
0, 0, 1, 0,
0, 0, 0, 0,
0, 0, 0, 0,
0, 0, 0, 0,
0, 0, 0, 0,
0, 0, 0, 0,
0, 0, 0, 0,
0, 0, 0, 0,
0, 0, 0, 0,
0, 0, 0, 0,
0, 0, 0, 0,
0, 0, 0, 0,
0, 0, 0, 0,
0, 0, 0, 0,
0, 0, 0, 0,
0, 0, 0, 0,
0, 0, 0, 0,
0, 0, 0, 0,
0, 0, 0, 0,
0, 0, 0, 0,
0, 0, 0, 0,
0, 0, 0, 0,
0, 1, 0, 0,
0, 0, 0, 0,
0, 0, 0, 0,
0, 0, 0, 0,
0, 0, 0, 0,
0, 0, 0, 0,
0, 0, 0, 0,
0, 1, 0, 0,
0, 0, 0, 0,
0, 0, 0, 0,
0, 0, 0, 0,
0, 0, 0, 0,
0, 0, 0, 0,
0, 0, 0, 0,
0, 0, 0, 0,
0, 0, 0, 0,
0, 0, 0, 0,
0, 0, 0, 0,
0, 0, 0, 0,
0, 0, 0, 0,
0, 0, 0, 0,
0, 0, 0, 0,
0, 0, 0, 0,
0, 0, 0, 0,
0, 0, 0, 0,
0, 0, 0, 0,
0, 0, 0, 0,
0, 0, 0, 0,
0, 0, 0, 0,
0, 0, 0, 0,
0, 0, 0, 0,
0, 0, 0, 0,
0, 0, 0, 0,
0, 0, 0, 0,
0, 0, 0, 0,
0, 0, 0, 0,
0, 0, 0, 0,
0, 0, 0, 0,
0, 0, 0, 0,
0, 0, 0, 0,
0, 0, 0, 0,
0, 0, 0, 0,
0, 0, 0, 0,
0, 0, 0, 1,
0, 0, 0, 0,
0, 0, 0, 0,
0, 0, 0, 0,
0, 0, 0, 0,
0, 0, 0, 0,
0, 0, 0, 0,
0, 0, 0, 0,
0, 0, 0, 0,
0, 0, 0, 0,
1, 0, 0, 0,
0, 0, 0, 0,
0, 0, 0, 0,
0, 0, 0, 0,
0, 0, 0, 0,
0, 0, 0, 0,
0, 0, 0, 0,
0, 0, 0, 0,
0, 0, 0, 0,
0, 0, 0, 0,
0, 0, 0, 0,
0, 0, 0, 0,
1, 0, 0, 0,
0, 0, 0, 0,
0, 0, 0, 0,
0, 0, 0, 0,
0, 0, 0, 0,
0, 0, 0, 0,
0, 0, 0, 0,
0, 0, 0, 0,
0, 0, 0, 0,
0, 0, 0, 0,
0, 0, 0, 0,
0, 0, 0, 0,
0, 0, 0, 0,
0, 0, 0, 0,
0, 0, 0, 0,
0, 0, 0, 0,
0, 0, 0, 0,
0, 0, 0, 0,
0, 0, 0, 0,
0, 0, 0, 0,
0, 0, 0, 0,
0, 0, 0, 0,
0, 0, 0, 0,
0, 0, 0, 0,
0, 0, 0, 0,
0, 0, 0, 0,
0, 0, 0, 0,
0, 0, 0, 0,
0, 0, 0, 0,
0, 0, 0, 1,
0, 0, 0, 0,
0, 0, 0, 0,
0, 0, 0, 0,
0, 0, 0, 0,
0, 0, 0, 0,
0, 0, 0, 0,
0, 0, 0, 0,
0, 0, 0, 0,
0, 0, 0, 0,
0, 0, 0, 0,
0, 0, 0, 0,
0, 0, 0, 0,
0, 0, 0, 0,
0, 0, 0, 0,
0, 0, 0, 0,
0, 0, 0, 0,
0, 0, 0, 0,
0, 0, 0, 0,
0, 0, 0, 0,
0, 0, 0, 0,
0, 0, 0, 0,
0, 0, 0, 0,
0, 0, 0, 0,
0, 0, 0, 0,
0, 0, 0, 0,
0, 0, 0, 0,
0, 0, 0, 0,
0, 0, 0, 0,
0, 0, 0, 0,
0, 0, 0, 0,
0, 0, 0, 0,
0, 0, 0, 0,
0, 0, 0, 0,
0, 0, 0, 0,
0, 0, 0, 0,
0, 0, 0, 0,
0, 0, 0, 0,
0, 0, 0, 0,
0, 0, 0, 0,
0, 0, 0, 0,
0, 0, 0, 0,
0, 0, 0, 0,
0, 0, 0, 0,
0, 0, 0, 0,
0, 0, 0, 0,
0, 0, 0, 0,
0, 0, 0, 0,
0, 0, 0, 0,
0, 0, 0, 0,
0, 0, 0, 0,
0, 0, 0, 0,
0, 0, 0, 0,
0, 0, 0, 0,
0, 0, 0, 0,
0, 0, 0, 0,
0, 0, 0, 0,
0, 0, 0, 0,
0, 0, 0, 0,
0, 0, 0, 0,
0, 0, 0, 0,
0, 0, 0, 0,
0, 0, 0, 0,
0, 0, 0, 0,
0, 0, 0, 0,
0, 0, 0, 0,
0, 0, 0, 0,
0, 0, 0, 0,
0, 0, 0, 0,
0, 0, 0, 0,
0, 0, 0, 0,
0, 1, 0, 0,
0, 0, 0, 0,
0, 0, 0, 0,
#ENDOFDATA   :