File: dtsa2/DemoSpectra/Benitoite/Si std.msa
#FORMAT      : EMSA/MAS Spectral Data File
#VERSION     : 1.0
#TITLE       : Bruker AXS spectrum Si
#DATE        : 29-JUL-2008
#TIME        : 10:06
#OWNER       : Bruker AXS
#NPOINTS     : 4096
#NCOLUMNS    : 4
#XUNITS      : eV
#YUNITS      : counts
#DATATYPE    : Y
#XPERCHAN    : 5.00409
#OFFSET      : -477.824
#BEAMKV      : 15
#SIGNALTYPE  : EDS
#ELEVANGLE   : 40
#AZIMANGLE   : 180
#LIVETIME    : 59.35
#REALTIME    : 65.123
#PROBECUR    : 2.5
#TAUWIND     : 0
#TDEADLYR    : 0.00001
#TACTLYR     : 0.045
#TALWIND     : 0.003
#CHOFFSET    : 0.0
#XLABEL      : Energy (eV)
#YLABEL      : Counts
#EDSDET      : SDDUTW
##D2STDCMP   : Si,(Si:100.0),2.95
#SPECTRUM    :
0, 0, 0, 0,
0, 0, 0, 0,
0, 0, 0, 0,
0, 0, 0, 0,
0, 0, 0, 0,
0, 0, 0, 0,
0, 0, 0, 0,
0, 0, 0, 0,
0, 0, 0, 0,
0, 0, 0, 0,
0, 0, 0, 0,
0, 0, 0, 0,
0, 0, 0, 0,
0, 0, 0, 0,
0, 0, 0, 0,
0, 0, 0, 0,
0, 0, 0, 0,
0, 0, 0, 0,
0, 0, 0, 0,
0, 0, 0, 0,
2, 10, 25, 96,
374, 1140, 3050, 7744,
17471, 35778, 65266, 107096,
157852, 208130, 245178, 259450,
248320, 214582, 165941, 116003,
72933, 42511, 21568, 9498,
3344, 702, 29, 6,
5, 0, 6, 57,
172, 346, 528, 643,
657, 596, 498, 398,
312, 246, 211, 185,
168, 146, 126, 107,
96, 87, 81, 74,
69, 70, 75, 81,
84, 89, 94, 99,
107, 117, 132, 153,
177, 203, 224, 248,
267, 288, 298, 300,
279, 255, 224, 191,
167, 145, 134, 112,
109, 100, 118, 111,
117, 125, 117, 133,
129, 142, 137, 151,
135, 143, 147, 151,
162, 173, 181, 176,
181, 196, 200, 208,
228, 239, 249, 245,
247, 257, 266, 292,
343, 339, 312, 371,
396, 413, 405, 438,
407, 401, 414, 369,
397, 352, 332, 368,
322, 354, 343, 322,
340, 356, 346, 414,
359, 421, 427, 412,
432, 437, 469, 453,
513, 470, 515, 502,
519, 513, 544, 562,
550, 580, 558, 578,
577, 560, 610, 606,
665, 612, 621, 613,
613, 616, 622, 682,
693, 677, 721, 675,
707, 700, 707, 721,
754, 732, 722, 736,
728, 759, 727, 774,
777, 752, 805, 771,
797, 841, 803, 803,
831, 779, 748, 787,
843, 792, 809, 829,
843, 759, 830, 831,
764, 819, 781, 824,
815, 815, 841, 812,
822, 785, 831, 857,
868, 867, 793, 929,
817, 853, 802, 895,
827, 863, 889, 895,
834, 809, 855, 837,
898, 864, 821, 835,
890, 815, 850, 843,
840, 836, 827, 876,
861, 837, 852, 852,
830, 824, 840, 855,
812, 853, 934, 873,
883, 884, 882, 838,
862, 824, 834, 814,
818, 849, 851, 851,
833, 883, 837, 808,
830, 852, 861, 846,
871, 918, 868, 821,
883, 849, 835, 871,
855, 915, 920, 874,
896, 898, 911, 840,
859, 872, 903, 956,
920, 916, 883, 945,
955, 919, 955, 879,
958, 965, 1000, 1077,
1042, 1010, 985, 1104,
1167, 1099, 1089, 1135,
1108, 1121, 1131, 1170,
1131, 1116, 1159, 1118,
1111, 1147, 1173, 1160,
1128, 1151, 1158, 1171,
1135, 1120, 1182, 1137,
1150, 1161, 1188, 1227,
1298, 1366, 1529, 1682,
2183, 2654, 3378, 4549,
6230, 8759, 11954, 16219,
21380, 28366, 36606, 46113,
56422, 67437, 79529, 90332,
100367, 109226, 115784, 118859,
120219, 117536, 112718, 105217,
95461, 84931, 74118, 63366,
52405, 42792, 34406, 27365,
21816, 17270, 13600, 11288,
9492, 8007, 7092, 6638,
5901, 5511, 4900, 4380,
3867, 3407, 2953, 2486,
2057, 1715, 1350, 1128,
900, 793, 631, 545,
463, 365, 339, 316,
245, 246, 246, 269,
282, 228, 252, 244,
248, 237, 248, 251,
249, 248, 278, 250,
233, 259, 259, 231,
264, 228, 268, 252,
263, 238, 247, 255,
262, 271, 234, 292,
237, 241, 238, 254,
281, 269, 272, 251,
260, 272, 276, 249,
258, 278, 265, 257,
273, 252, 293, 265,
253, 243, 278, 278,
264, 233, 253, 272,
271, 243, 261, 248,
251, 284, 240, 250,
247, 275, 254, 271,
262, 226, 273, 268,
240, 280, 289, 270,
273, 279, 290, 256,
285, 271, 272, 292,
268, 275, 283, 272,
271, 263, 284, 265,
275, 231, 261, 283,
256, 281, 255, 253,
279, 268, 279, 274,
287, 297, 266, 263,
246, 254, 279, 254,
268, 245, 275, 280,
305, 254, 288, 253,
261, 264, 257, 243,
265, 307, 278, 253,
233, 262, 260, 231,
275, 280, 296, 259,
231, 250, 275, 253,
238, 276, 261, 263,
256, 270, 275, 261,
250, 240, 279, 264,
289, 254, 238, 249,
269, 244, 276, 254,
266, 245, 250, 265,
253, 278, 269, 252,
244, 253, 266, 290,
260, 262, 278, 250,
264, 262, 271, 243,
258, 217, 265, 247,
241, 298, 261, 238,
256, 245, 265, 250,
260, 251, 246, 244,
251, 230, 270, 282,
221, 245, 252, 221,
275, 263, 239, 277,
248, 259, 239, 258,
251, 253, 276, 241,
238, 243, 226, 242,
249, 252, 245, 246,
225, 224, 252, 258,
244, 236, 250, 247,
237, 260, 243, 291,
252, 219, 254, 221,
230, 247, 260, 260,
242, 218, 245, 255,
284, 260, 261, 247,
234, 214, 219, 218,
219, 244, 234, 250,
234, 253, 253, 220,
221, 253, 251, 223,
243, 221, 242, 250,
251, 253, 221, 216,
248, 242, 236, 228,
246, 220, 211, 255,
228, 218, 261, 247,
254, 256, 293, 278,
290, 325, 323, 325,
332, 362, 363, 370,
394, 351, 376, 392,
341, 365, 376, 311,
336, 329, 309, 322,
321, 299, 307, 277,
253, 252, 266, 209,
252, 237, 247, 270,
253, 201, 220, 245,
218, 203, 234, 219,
235, 220, 228, 227,
192, 241, 194, 193,
239, 190, 202, 186,
205, 197, 211, 206,
226, 184, 214, 206,
220, 201, 191, 207,
200, 182, 221, 205,
210, 178, 213, 201,
195, 211, 213, 200,
176, 177, 196, 193,
194, 206, 199, 187,
204, 207, 174, 190,
197, 205, 189, 206,
195, 195, 191, 205,
237, 181, 164, 184,
183, 183, 192, 182,
186, 195, 195, 204,
188, 193, 166, 169,
177, 194, 173, 198,
186, 199, 183, 209,
199, 203, 195, 186,
164, 192, 202, 198,
189, 190, 189, 174,
176, 183, 178, 198,
185, 186, 189, 197,
185, 169, 176, 201,
179, 156, 167, 187,
164, 179, 189, 171,
184, 162, 196, 174,
170, 184, 146, 178,
160, 170, 170, 169,
175, 163, 187, 181,
161, 173, 193, 164,
167, 179, 155, 165,
167, 186, 179, 183,
175, 173, 161, 184,
201, 169, 146, 163,
165, 177, 198, 196,
154, 168, 178, 157,
152, 176, 168, 191,
178, 161, 157, 151,
171, 169, 173, 167,
170, 164, 160, 148,
145, 154, 171, 150,
161, 161, 155, 162,
151, 162, 150, 167,
158, 159, 156, 170,
175, 165, 145, 158,
145, 151, 161, 158,
147, 143, 163, 147,
170, 160, 131, 170,
161, 161, 172, 159,
160, 173, 127, 156,
138, 155, 136, 156,
170, 163, 147, 158,
133, 165, 136, 158,
160, 163, 132, 153,
146, 156, 130, 147,
141, 151, 145, 139,
125, 155, 156, 168,
149, 162, 137, 139,
144, 141, 130, 134,
148, 154, 142, 160,
159, 160, 110, 145,
172, 142, 150, 122,
131, 146, 138, 143,
140, 119, 147, 137,
141, 132, 148, 123,
126, 122, 129, 123,
123, 168, 141, 117,
147, 161, 167, 140,
143, 124, 110, 136,
152, 149, 119, 157,
147, 143, 134, 138,
129, 136, 138, 153,
141, 131, 163, 127,
139, 132, 131, 128,
135, 139, 142, 125,
158, 131, 108, 124,
122, 106, 123, 131,
109, 133, 105, 142,
110, 117, 134, 124,
134, 122, 117, 130,
145, 129, 115, 112,
133, 115, 111, 147,
125, 137, 126, 139,
131, 131, 100, 132,
137, 132, 120, 122,
108, 132, 129, 120,
145, 130, 130, 137,
121, 131, 134, 125,
120, 121, 113, 123,
112, 117, 98, 114,
145, 132, 107, 138,
113, 136, 122, 117,
120, 128, 115, 113,
144, 125, 121, 126,
118, 135, 113, 119,
110, 110, 113, 95,
113, 110, 119, 139,
117, 120, 100, 110,
129, 109, 113, 110,
124, 129, 114, 119,
110, 106, 108, 111,
117, 107, 101, 108,
126, 98, 116, 108,
114, 111, 113, 109,
116, 125, 123, 105,
106, 93, 99, 102,
98, 103, 106, 114,
110, 113, 95, 108,
105, 89, 114, 113,
122, 90, 117, 101,
109, 107, 119, 97,
84, 106, 110, 110,
92, 105, 93, 102,
109, 87, 104, 89,
97, 118, 94, 91,
101, 95, 108, 105,
116, 102, 80, 91,
112, 99, 100, 109,
104, 94, 114, 97,
112, 115, 101, 108,
93, 99, 88, 95,
85, 106, 93, 87,
96, 95, 90, 95,
97, 82, 94, 93,
81, 89, 87, 101,
109, 99, 90, 84,
100, 78, 107, 93,
85, 99, 95, 105,
94, 102, 99, 93,
107, 90, 95, 92,
98, 90, 97, 83,
98, 97, 85, 114,
88, 87, 82, 79,
100, 91, 88, 81,
101, 107, 95, 78,
102, 94, 97, 100,
102, 93, 100, 81,
97, 96, 77, 95,
91, 98, 79, 100,
86, 104, 96, 82,
104, 80, 94, 79,
80, 66, 87, 100,
100, 80, 84, 68,
89, 98, 79, 82,
94, 81, 89, 70,
73, 89, 77, 92,
88, 79, 83, 119,
75, 76, 86, 94,
72, 80, 88, 69,
91, 91, 86, 84,
75, 90, 77, 74,
77, 88, 84, 88,
75, 75, 86, 85,
66, 70, 76, 78,
90, 70, 73, 77,
65, 95, 67, 64,
91, 67, 76, 75,
74, 90, 82, 75,
81, 92, 68, 84,
80, 77, 101, 84,
78, 92, 90, 80,
71, 71, 79, 66,
63, 87, 81, 66,
75, 82, 74, 85,
99, 61, 65, 78,
75, 77, 76, 89,
91, 69, 70, 76,
67, 80, 71, 82,
83, 64, 80, 73,
82, 74, 82, 70,
71, 80, 87, 64,
63, 81, 73, 80,
77, 74, 69, 65,
63, 69, 73, 73,
83, 86, 78, 74,
71, 69, 89, 72,
72, 83, 67, 70,
56, 63, 72, 69,
80, 61, 80, 65,
68, 57, 64, 71,
73, 70, 74, 63,
49, 76, 81, 71,
76, 85, 63, 64,
60, 56, 60, 75,
65, 63, 73, 76,
62, 70, 61, 74,
65, 66, 75, 61,
64, 81, 67, 60,
75, 60, 56, 78,
77, 86, 59, 74,
58, 74, 84, 74,
75, 64, 87, 75,
57, 74, 67, 69,
74, 83, 64, 57,
60, 57, 76, 62,
76, 76, 83, 71,
62, 59, 64, 55,
75, 59, 72, 73,
72, 67, 79, 55,
79, 66, 59, 59,
54, 57, 64, 60,
62, 63, 58, 54,
74, 76, 55, 67,
54, 45, 58, 68,
44, 61, 58, 55,
71, 67, 56, 65,
63, 58, 56, 73,
52, 66, 66, 51,
58, 59, 60, 62,
82, 51, 54, 65,
58, 73, 49, 66,
61, 51, 60, 53,
55, 54, 36, 52,
51, 47, 43, 56,
71, 49, 59, 39,
61, 67, 53, 52,
71, 64, 61, 50,
47, 55, 60, 46,
41, 63, 57, 45,
63, 52, 51, 66,
70, 41, 43, 60,
51, 48, 50, 38,
55, 50, 58, 52,
78, 43, 53, 46,
58, 44, 64, 57,
62, 55, 47, 51,
56, 45, 55, 55,
61, 49, 62, 52,
55, 68, 52, 49,
53, 46, 54, 47,
54, 49, 67, 53,
60, 39, 58, 52,
38, 59, 61, 43,
57, 46, 56, 61,
47, 57, 61, 46,
48, 39, 59, 56,
53, 52, 47, 56,
48, 48, 57, 41,
50, 65, 46, 49,
61, 41, 50, 58,
46, 45, 45, 46,
46, 26, 54, 39,
44, 51, 54, 55,
56, 44, 42, 54,
44, 40, 51, 43,
44, 39, 51, 52,
58, 49, 41, 55,
51, 38, 39, 38,
47, 52, 57, 45,
39, 48, 51, 38,
50, 42, 38, 42,
46, 42, 31, 41,
50, 40, 50, 39,
52, 44, 41, 36,
46, 41, 48, 48,
47, 52, 49, 41,
54, 44, 46, 45,
44, 58, 39, 53,
55, 41, 38, 46,
35, 44, 43, 58,
34, 46, 47, 35,
62, 35, 46, 47,
37, 44, 49, 41,
38, 48, 40, 33,
41, 53, 41, 39,
38, 31, 42, 48,
47, 41, 39, 46,
36, 51, 50, 42,
44, 49, 26, 48,
33, 41, 54, 33,
46, 47, 36, 35,
40, 49, 48, 37,
38, 38, 48, 42,
43, 40, 34, 41,
47, 46, 35, 43,
32, 43, 45, 41,
36, 37, 36, 27,
35, 33, 33, 36,
35, 39, 38, 50,
39, 43, 48, 40,
43, 39, 42, 32,
40, 41, 41, 46,
45, 51, 37, 58,
37, 27, 37, 38,
35, 31, 42, 40,
23, 34, 33, 35,
33, 32, 34, 39,
40, 40, 42, 30,
33, 42, 24, 34,
42, 39, 37, 34,
26, 37, 27, 37,
40, 38, 33, 38,
27, 26, 44, 29,
26, 41, 42, 33,
34, 30, 29, 51,
29, 26, 40, 29,
35, 36, 32, 34,
24, 39, 36, 39,
38, 33, 31, 29,
37, 34, 31, 31,
32, 36, 30, 40,
33, 29, 35, 36,
31, 39, 38, 29,
30, 37, 43, 30,
34, 22, 22, 30,
34, 33, 39, 36,
41, 36, 28, 33,
27, 29, 24, 33,
29, 18, 36, 26,
36, 34, 34, 37,
21, 31, 26, 28,
22, 27, 33, 35,
30, 28, 32, 22,
25, 31, 40, 33,
32, 27, 31, 31,
24, 29, 40, 30,
31, 32, 26, 38,
39, 30, 32, 39,
26, 27, 30, 34,
29, 28, 27, 33,
31, 30, 34, 37,
31, 28, 31, 21,
29, 31, 29, 31,
39, 27, 19, 30,
24, 33, 30, 36,
27, 30, 23, 23,
25, 24, 26, 28,
21, 36, 27, 27,
25, 19, 22, 31,
17, 30, 35, 23,
23, 30, 27, 25,
21, 30, 24, 31,
24, 22, 28, 27,
21, 28, 21, 35,
31, 30, 27, 19,
31, 20, 23, 23,
25, 34, 36, 28,
25, 30, 27, 28,
28, 34, 28, 29,
26, 30, 27, 18,
19, 25, 31, 21,
32, 17, 20, 24,
22, 22, 32, 17,
23, 20, 16, 21,
18, 32, 27, 15,
24, 28, 17, 44,
22, 24, 25, 31,
22, 30, 20, 31,
17, 17, 25, 22,
22, 25, 23, 34,
17, 29, 21, 21,
23, 32, 19, 30,
23, 22, 24, 20,
27, 21, 22, 23,
17, 22, 25, 24,
26, 12, 21, 13,
25, 23, 18, 17,
21, 29, 19, 21,
25, 14, 27, 17,
14, 15, 25, 24,
19, 33, 20, 21,
13, 22, 28, 24,
21, 19, 25, 21,
13, 14, 20, 22,
18, 17, 19, 23,
14, 20, 18, 17,
15, 32, 16, 22,
19, 30, 26, 24,
23, 23, 25, 19,
25, 18, 20, 22,
16, 31, 26, 16,
14, 17, 25, 20,
29, 18, 17, 16,
24, 12, 22, 23,
15, 23, 20, 18,
22, 20, 15, 14,
26, 17, 15, 18,
16, 14, 21, 18,
18, 18, 16, 18,
17, 19, 24, 22,
21, 17, 14, 23,
24, 18, 13, 20,
17, 20, 24, 21,
16, 22, 17, 18,
16, 12, 17, 20,
17, 24, 18, 18,
17, 14, 22, 12,
25, 14, 13, 20,
18, 20, 15, 21,
24, 13, 24, 13,
23, 22, 14, 19,
20, 15, 14, 11,
13, 17, 17, 13,
12, 13, 20, 12,
21, 19, 21, 19,
15, 20, 17, 9,
20, 16, 9, 12,
17, 11, 17, 12,
13, 12, 7, 14,
16, 18, 17, 16,
7, 12, 16, 18,
8, 12, 12, 20,
13, 13, 15, 17,
14, 19, 12, 10,
8, 12, 17, 13,
13, 24, 17, 27,
16, 19, 14, 25,
11, 15, 16, 10,
18, 17, 16, 16,
10, 18, 7, 18,
15, 21, 6, 15,
16, 11, 16, 8,
9, 11, 13, 13,
13, 19, 18, 16,
13, 10, 13, 13,
12, 12, 11, 13,
9, 10, 12, 16,
13, 11, 9, 7,
14, 15, 12, 13,
19, 10, 14, 12,
16, 11, 9, 12,
14, 14, 14, 11,
16, 17, 13, 15,
7, 10, 15, 12,
12, 10, 6, 12,
12, 14, 12, 14,
10, 17, 12, 8,
10, 7, 9, 12,
17, 16, 10, 11,
8, 9, 18, 15,
11, 15, 14, 10,
16, 13, 11, 9,
8, 12, 11, 12,
12, 5, 12, 8,
6, 14, 15, 3,
5, 9, 11, 8,
7, 9, 10, 7,
14, 9, 10, 6,
13, 6, 10, 12,
9, 13, 9, 6,
10, 16, 9, 13,
8, 15, 10, 11,
10, 14, 11, 6,
4, 10, 5, 8,
5, 14, 12, 4,
7, 5, 11, 9,
10, 8, 8, 9,
6, 8, 7, 15,
6, 8, 10, 8,
8, 8, 6, 11,
9, 5, 9, 12,
9, 5, 11, 2,
8, 9, 8, 10,
8, 6, 4, 10,
10, 12, 10, 8,
9, 8, 5, 7,
7, 12, 7, 6,
11, 9, 11, 11,
8, 7, 9, 7,
8, 10, 3, 10,
6, 4, 11, 9,
9, 4, 9, 7,
11, 4, 7, 8,
5, 5, 6, 10,
8, 12, 5, 11,
5, 9, 8, 7,
5, 8, 7, 6,
8, 6, 3, 7,
6, 3, 4, 3,
5, 7, 4, 7,
5, 4, 6, 8,
8, 4, 8, 6,
6, 11, 6, 8,
7, 12, 3, 5,
7, 6, 6, 5,
5, 13, 7, 5,
9, 7, 9, 9,
2, 7, 5, 8,
8, 8, 11, 4,
6, 6, 3, 6,
7, 7, 7, 9,
9, 6, 3, 6,
8, 4, 5, 5,
3, 1, 3, 4,
4, 7, 3, 6,
6, 4, 8, 8,
6, 3, 5, 5,
3, 7, 6, 4,
8, 3, 3, 3,
6, 1, 6, 4,
4, 5, 4, 4,
3, 8, 7, 5,
6, 2, 4, 6,
6, 5, 9, 2,
7, 2, 3, 7,
7, 4, 5, 4,
8, 7, 4, 3,
6, 13, 7, 3,
5, 7, 4, 5,
2, 4, 2, 4,
2, 2, 4, 3,
7, 1, 5, 5,
4, 2, 5, 2,
4, 2, 8, 2,
3, 6, 1, 5,
6, 6, 3, 7,
4, 1, 5, 2,
1, 3, 5, 3,
3, 4, 5, 5,
4, 2, 2, 4,
0, 3, 7, 1,
4, 3, 3, 1,
4, 2, 3, 1,
6, 2, 4, 3,
0, 2, 3, 7,
1, 2, 4, 1,
4, 3, 3, 2,
3, 3, 3, 2,
3, 1, 3, 4,
4, 4, 2, 4,
1, 2, 2, 7,
3, 5, 3, 4,
1, 2, 0, 3,
3, 4, 5, 5,
5, 3, 2, 3,
2, 5, 2, 2,
5, 4, 4, 1,
0, 2, 0, 3,
0, 2, 1, 4,
3, 1, 6, 1,
2, 4, 1, 4,
1, 1, 2, 4,
2, 1, 1, 2,
2, 3, 3, 6,
2, 4, 0, 0,
1, 2, 0, 1,
1, 3, 2, 1,
7, 2, 2, 1,
2, 1, 0, 3,
1, 2, 0, 0,
2, 1, 2, 0,
0, 1, 1, 2,
0, 1, 1, 0,
3, 0, 0, 0,
1, 1, 3, 1,
2, 2, 3, 0,
2, 2, 1, 1,
1, 2, 1, 1,
1, 1, 2, 1,
2, 2, 1, 1,
0, 1, 2, 0,
2, 2, 0, 2,
1, 1, 0, 1,
1, 0, 0, 2,
1, 1, 0, 1,
2, 0, 0, 1,
1, 0, 0, 1,
2, 0, 1, 1,
1, 0, 0, 2,
0, 0, 1, 0,
1, 0, 0, 0,
0, 0, 1, 0,
0, 1, 0, 1,
0, 0, 0, 1,
0, 0, 0, 0,
0, 0, 0, 0,
0, 0, 0, 0,
1, 0, 1, 3,
0, 0, 0, 0,
0, 0, 0, 0,
0, 0, 0, 0,
0, 0, 0, 0,
0, 0, 0, 0,
0, 0, 0, 0,
0, 0, 0, 0,
0, 0, 0, 0,
0, 0, 0, 0,
0, 0, 0, 0,
0, 0, 0, 0,
0, 0, 0, 0,
0, 0, 0, 0,
0, 0, 0, 0,
0, 0, 0, 0,
0, 0, 0, 0,
0, 0, 0, 0,
0, 0, 0, 0,
0, 0, 0, 0,
0, 0, 0, 0,
0, 0, 0, 0,
0, 0, 0, 0,
0, 0, 0, 0,
0, 0, 0, 0,
0, 0, 0, 0,
0, 0, 0, 0,
0, 0, 1, 0,
0, 0, 0, 0,
0, 0, 0, 0,
0, 0, 0, 0,
0, 0, 0, 0,
0, 0, 0, 0,
0, 0, 0, 0,
0, 0, 0, 0,
0, 0, 0, 0,
0, 0, 0, 0,
0, 0, 0, 0,
0, 0, 0, 0,
0, 0, 0, 0,
0, 0, 0, 0,
0, 0, 0, 0,
0, 0, 0, 0,
0, 0, 0, 0,
0, 0, 0, 0,
0, 0, 0, 0,
0, 0, 0, 0,
0, 0, 0, 0,
0, 0, 1, 0,
0, 0, 0, 0,
0, 0, 0, 0,
0, 0, 0, 0,
0, 0, 0, 0,
0, 0, 0, 0,
0, 0, 0, 0,
0, 0, 0, 0,
0, 0, 0, 0,
0, 0, 0, 0,
0, 0, 0, 0,
0, 0, 0, 0,
0, 0, 0, 0,
0, 0, 0, 0,
0, 0, 0, 0,
0, 0, 0, 0,
0, 0, 0, 0,
0, 0, 0, 0,
0, 0, 0, 0,
0, 0, 0, 0,
0, 0, 0, 0,
0, 0, 0, 0,
0, 0, 0, 0,
0, 0, 0, 0,
0, 0, 0, 0,
0, 0, 0, 0,
0, 0, 0, 0,
0, 1, 0, 0,
0, 0, 0, 0,
0, 0, 0, 0,
0, 0, 0, 0,
0, 0, 0, 0,
0, 0, 0, 0,
0, 0, 0, 0,
0, 0, 0, 0,
0, 0, 0, 0,
0, 0, 0, 0,
0, 0, 0, 0,
0, 0, 0, 0,
0, 0, 0, 0,
0, 0, 1, 0,
0, 0, 0, 0,
0, 0, 0, 0,
0, 0, 0, 0,
0, 0, 0, 0,
0, 0, 0, 0,
0, 0, 0, 0,
0, 0, 0, 0,
0, 0, 0, 0,
0, 0, 0, 0,
0, 0, 0, 0,
0, 0, 0, 0,
0, 0, 0, 0,
0, 0, 0, 0,
0, 0, 0, 0,
0, 0, 0, 0,
0, 0, 0, 0,
0, 0, 0, 0,
0, 0, 0, 0,
0, 0, 0, 0,
0, 0, 0, 0,
0, 0, 0, 0,
0, 0, 0, 0,
0, 0, 0, 0,
0, 0, 0, 0,
0, 0, 0, 0,
0, 0, 0, 0,
0, 0, 0, 0,
0, 0, 0, 0,
0, 0, 0, 0,
0, 0, 0, 0,
0, 0, 0, 0,
0, 0, 0, 0,
0, 0, 0, 0,
0, 0, 0, 0,
0, 0, 0, 0,
0, 0, 0, 0,
0, 0, 0, 0,
0, 0, 0, 0,
0, 0, 0, 0,
0, 0, 0, 0,
0, 0, 0, 0,
0, 0, 0, 0,
0, 0, 0, 0,
0, 0, 0, 0,
0, 0, 0, 0,
0, 0, 0, 0,
0, 0, 0, 0,
0, 0, 0, 0,
0, 0, 0, 0,
0, 0, 0, 0,
0, 0, 0, 0,
0, 0, 0, 0,
0, 0, 0, 0,
0, 0, 0, 0,
0, 0, 0, 0,
0, 0, 0, 0,
0, 0, 0, 0,
0, 0, 0, 0,
0, 0, 0, 0,
0, 0, 0, 0,
0, 0, 0, 0,
0, 0, 0, 0,
0, 0, 0, 0,
0, 0, 0, 0,
0, 0, 0, 0,
0, 0, 0, 0,
0, 0, 0, 0,
0, 0, 0, 0,
0, 0, 0, 0,
0, 0, 0, 0,
0, 0, 0, 0,
0, 0, 0, 0,
0, 0, 0, 0,
0, 0, 0, 0,
0, 0, 0, 0,
0, 0, 0, 0,
0, 0, 0, 0,
0, 0, 0, 0,
0, 0, 0, 0,
0, 0, 0, 0,
0, 0, 0, 0,
0, 0, 0, 0,
0, 0, 0, 0,
0, 0, 0, 0,
0, 0, 0, 0,
0, 0, 0, 0,
0, 0, 0, 0,
0, 0, 0, 0,
0, 0, 0, 0,
0, 0, 0, 0,
0, 0, 0, 0,
0, 0, 0, 0,
0, 0, 0, 0,
0, 0, 0, 0,
0, 0, 0, 0,
0, 0, 0, 0,
0, 0, 0, 0,
0, 0, 0, 0,
0, 0, 0, 0,
0, 0, 0, 0,
0, 0, 0, 0,
0, 0, 0, 0,
0, 0, 0, 0,
0, 0, 0, 0,
0, 0, 0, 0,
0, 0, 0, 0,
0, 0, 0, 0,
0, 0, 0, 0,
0, 0, 0, 0,
0, 0, 0, 0,
0, 0, 0, 0,
0, 0, 0, 0,
0, 0, 0, 0,
0, 0, 0, 0,
0, 0, 0, 0,
0, 0, 0, 0,
0, 0, 0, 0,
0, 0, 0, 0,
0, 0, 0, 0,
0, 0, 0, 0,
0, 0, 0, 0,
0, 0, 0, 0,
0, 0, 0, 0,
0, 0, 0, 0,
0, 0, 0, 0,
0, 0, 0, 0,
0, 0, 0, 0,
0, 0, 0, 0,
0, 0, 0, 0,
0, 0, 0, 0,
0, 0, 0, 0,
0, 0, 0, 0,
0, 0, 0, 0,
0, 0, 0, 0,
0, 0, 0, 0,
0, 0, 0, 0,
0, 0, 0, 0,
0, 0, 0, 0,
0, 0, 0, 0,
0, 0, 0, 0,
0, 0, 0, 0,
0, 0, 0, 0,
0, 0, 0, 0,
0, 0, 0, 0,
0, 0, 0, 0,
0, 0, 0, 0,
0, 0, 0, 0,
0, 0, 0, 0,
0, 0, 0, 0,
0, 0, 0, 0,
0, 0, 0, 0,
0, 0, 0, 0,
0, 0, 0, 0,
0, 0, 0, 0,
0, 0, 0, 0,
0, 0, 0, 0,
0, 0, 0, 0,
0, 0, 0, 0,
0, 0, 0, 0,
0, 0, 0, 0,
#ENDOFDATA   :