File: dtsa2/DemoSpectra/Benitoite/Ti std.msa
#FORMAT      : EMSA/MAS Spectral Data File
#VERSION     : 1.0
#TITLE       : Bruker AXS spectrum Ti
#DATE        : 29-JUL-2008
#TIME        : 10:24
#OWNER       : Bruker AXS
#NPOINTS     : 4096
#NCOLUMNS    : 4
#XUNITS      : eV
#YUNITS      : counts
#DATATYPE    : Y
#XPERCHAN    : 5.00409
#OFFSET      : -477.824
#BEAMKV      : 15
#SIGNALTYPE  : EDS
#ELEVANGLE   : 40
#AZIMANGLE   : 180
#LIVETIME    : 59.352
#REALTIME    : 63.428
#PROBECUR    : 2.5
#TAUWIND     : 0
#TDEADLYR    : 0.00001
#TACTLYR     : 0.045
#TALWIND     : 0.003
#CHOFFSET    : 0.0
#XLABEL      : Energy (eV)
#YLABEL      : Counts
#EDSDET      : SDDUTW
##D2STDCMP   : Ti,(Ti:100.0),5.0
#SPECTRUM    :
0, 0, 0, 0,
0, 0, 0, 0,
0, 0, 0, 0,
0, 0, 0, 0,
0, 0, 0, 0,
0, 0, 0, 0,
0, 0, 0, 0,
0, 0, 0, 0,
0, 0, 0, 0,
0, 0, 0, 0,
0, 0, 0, 0,
0, 0, 0, 0,
0, 0, 0, 0,
0, 0, 0, 0,
0, 0, 0, 0,
0, 0, 0, 0,
0, 0, 0, 0,
0, 0, 0, 0,
0, 0, 0, 0,
0, 0, 0, 0,
0, 3, 22, 57,
168, 556, 1710, 4044,
9132, 18669, 34304, 56434,
82791, 108091, 127979, 135344,
129050, 111689, 86348, 60512,
38453, 21803, 11218, 4922,
1674, 362, 0, 0,
0, 0, 0, 0,
0, 1, 25, 42,
49, 50, 47, 47,
48, 55, 58, 62,
69, 75, 90, 98,
103, 109, 116, 128,
146, 162, 183, 201,
220, 241, 265, 297,
331, 374, 408, 448,
489, 533, 588, 643,
684, 712, 700, 682,
647, 607, 547, 482,
409, 376, 372, 405,
455, 551, 666, 878,
1131, 1495, 1959, 2498,
3109, 3764, 4499, 5161,
5776, 6156, 6465, 6415,
6217, 5887, 5513, 5211,
4937, 4725, 4639, 4711,
4784, 4732, 4455, 3976,
3532, 3008, 2507, 2005,
1546, 1172, 961, 830,
762, 844, 804, 847,
859, 821, 766, 709,
557, 455, 403, 334,
276, 195, 172, 159,
162, 141, 158, 148,
150, 160, 166, 206,
162, 179, 173, 189,
170, 177, 186, 198,
227, 214, 214, 211,
209, 272, 248, 238,
262, 260, 269, 265,
258, 278, 255, 269,
294, 291, 320, 292,
293, 293, 332, 326,
352, 342, 342, 339,
367, 338, 357, 323,
371, 385, 406, 428,
424, 430, 456, 426,
444, 450, 452, 472,
469, 453, 458, 439,
427, 438, 439, 457,
463, 468, 430, 442,
478, 421, 455, 468,
475, 458, 494, 490,
467, 529, 482, 499,
528, 538, 526, 523,
513, 554, 523, 575,
559, 549, 579, 526,
580, 539, 611, 605,
530, 541, 568, 553,
609, 571, 601, 603,
572, 557, 583, 599,
576, 627, 600, 605,
631, 599, 607, 629,
644, 618, 588, 620,
613, 634, 669, 585,
609, 649, 619, 649,
632, 660, 597, 661,
646, 653, 621, 605,
670, 623, 637, 680,
690, 687, 640, 663,
655, 646, 648, 670,
699, 717, 700, 667,
680, 654, 696, 718,
725, 711, 671, 704,
647, 700, 669, 704,
660, 698, 694, 675,
701, 670, 687, 746,
727, 693, 700, 733,
717, 763, 725, 743,
695, 744, 709, 728,
678, 720, 720, 695,
679, 719, 727, 685,
676, 687, 675, 614,
674, 685, 664, 632,
683, 710, 682, 663,
639, 634, 676, 691,
723, 695, 669, 696,
680, 660, 702, 690,
633, 671, 683, 745,
687, 713, 704, 699,
660, 712, 731, 760,
692, 728, 780, 712,
780, 723, 666, 760,
750, 692, 686, 698,
688, 653, 660, 708,
699, 648, 717, 669,
667, 691, 628, 703,
639, 665, 617, 644,
637, 653, 650, 642,
646, 613, 632, 651,
631, 629, 655, 639,
590, 559, 641, 679,
604, 606, 654, 616,
622, 646, 626, 565,
633, 652, 630, 644,
644, 662, 672, 590,
650, 628, 626, 601,
621, 613, 631, 643,
639, 658, 637, 551,
638, 611, 644, 596,
607, 591, 613, 594,
616, 584, 597, 586,
611, 562, 591, 585,
607, 554, 588, 595,
573, 547, 614, 589,
552, 604, 582, 627,
596, 591, 605, 649,
605, 597, 557, 539,
578, 596, 555, 591,
581, 598, 573, 582,
592, 532, 615, 553,
591, 614, 543, 535,
555, 546, 557, 547,
571, 553, 532, 588,
522, 553, 589, 611,
578, 564, 569, 568,
569, 538, 546, 528,
533, 562, 569, 562,
569, 564, 521, 527,
489, 532, 565, 537,
556, 564, 505, 560,
517, 560, 514, 544,
572, 505, 532, 594,
516, 517, 527, 499,
530, 533, 508, 544,
514, 535, 546, 517,
541, 526, 572, 544,
523, 522, 494, 489,
529, 493, 558, 554,
489, 550, 557, 525,
518, 491, 501, 517,
562, 513, 548, 486,
533, 494, 525, 526,
514, 498, 517, 510,
499, 501, 511, 550,
478, 482, 522, 496,
525, 455, 493, 485,
464, 472, 469, 455,
454, 492, 462, 492,
441, 417, 495, 457,
453, 464, 464, 492,
436, 470, 451, 469,
478, 453, 454, 482,
470, 456, 451, 469,
476, 475, 444, 454,
454, 487, 442, 447,
408, 463, 435, 408,
462, 440, 438, 432,
420, 433, 440, 431,
440, 459, 432, 457,
455, 475, 412, 410,
434, 429, 422, 439,
445, 434, 399, 453,
431, 421, 417, 437,
403, 427, 456, 413,
394, 401, 346, 418,
408, 427, 401, 432,
425, 411, 403, 429,
382, 426, 422, 378,
386, 400, 385, 382,
395, 406, 389, 424,
416, 418, 422, 378,
431, 366, 406, 382,
396, 418, 350, 412,
413, 419, 395, 398,
397, 389, 376, 376,
385, 389, 392, 370,
394, 383, 370, 372,
395, 376, 400, 331,
368, 373, 394, 376,
401, 379, 387, 375,
367, 404, 393, 379,
350, 373, 347, 384,
361, 381, 339, 374,
370, 357, 359, 381,
374, 357, 359, 374,
353, 338, 348, 341,
353, 398, 342, 356,
351, 338, 404, 349,
345, 320, 352, 360,
330, 375, 374, 360,
352, 366, 354, 363,
352, 356, 333, 374,
344, 328, 344, 337,
367, 367, 363, 341,
340, 363, 329, 330,
383, 367, 340, 330,
345, 391, 353, 355,
351, 372, 337, 382,
362, 374, 335, 373,
323, 322, 354, 336,
328, 341, 293, 371,
278, 331, 322, 304,
319, 325, 343, 323,
306, 310, 330, 343,
320, 345, 314, 310,
341, 312, 314, 324,
318, 328, 314, 305,
342, 300, 338, 326,
307, 267, 294, 288,
302, 306, 302, 304,
325, 356, 339, 315,
296, 310, 268, 328,
284, 301, 289, 294,
295, 313, 300, 329,
305, 310, 341, 333,
314, 333, 330, 337,
331, 311, 351, 365,
344, 374, 370, 394,
382, 379, 371, 426,
426, 418, 461, 462,
481, 530, 516, 591,
657, 776, 844, 955,
1072, 1324, 1554, 1882,
2278, 2824, 3510, 4150,
5093, 5987, 7163, 8517,
9779, 11506, 13121, 15044,
16883, 18700, 20386, 22025,
24187, 25378, 26870, 28193,
28403, 29174, 29321, 28978,
28294, 27758, 26375, 25047,
23468, 22000, 20001, 18412,
16268, 14549, 12780, 10992,
9223, 7977, 6766, 5592,
4668, 3925, 3153, 2544,
1974, 1674, 1347, 1105,
900, 739, 664, 520,
458, 413, 384, 378,
378, 297, 341, 301,
325, 320, 312, 316,
294, 339, 320, 349,
297, 344, 332, 341,
354, 341, 367, 383,
387, 415, 449, 416,
447, 520, 551, 594,
639, 703, 804, 917,
977, 1109, 1276, 1363,
1555, 1706, 1903, 2135,
2345, 2542, 2776, 3024,
3108, 3220, 3487, 3460,
3511, 3786, 3642, 3636,
3723, 3607, 3513, 3293,
3096, 2920, 2752, 2414,
2296, 2049, 1982, 1626,
1494, 1339, 1150, 990,
939, 759, 675, 567,
504, 476, 385, 331,
308, 259, 260, 230,
220, 222, 210, 196,
183, 193, 184, 193,
205, 171, 172, 165,
157, 142, 191, 170,
182, 149, 150, 157,
183, 189, 183, 168,
176, 162, 170, 177,
198, 185, 187, 176,
148, 201, 154, 169,
184, 178, 162, 191,
153, 173, 178, 188,
160, 172, 148, 159,
164, 168, 169, 197,
155, 154, 167, 160,
161, 154, 164, 158,
171, 144, 189, 170,
182, 195, 181, 173,
162, 158, 176, 176,
181, 176, 168, 176,
172, 158, 160, 160,
182, 148, 160, 155,
158, 179, 176, 147,
158, 154, 163, 164,
163, 162, 157, 164,
166, 159, 155, 146,
171, 160, 153, 140,
176, 165, 140, 177,
165, 160, 160, 159,
145, 177, 173, 144,
161, 151, 140, 171,
153, 148, 169, 137,
177, 154, 162, 150,
165, 167, 171, 151,
174, 145, 154, 147,
141, 120, 147, 167,
137, 149, 151, 157,
174, 145, 146, 146,
160, 128, 159, 147,
171, 140, 167, 136,
135, 161, 147, 158,
133, 158, 135, 126,
156, 176, 143, 145,
128, 155, 151, 151,
141, 152, 180, 148,
180, 148, 165, 162,
162, 140, 132, 149,
154, 147, 167, 149,
131, 122, 148, 144,
151, 155, 146, 144,
148, 147, 159, 157,
155, 145, 118, 158,
139, 142, 127, 156,
132, 161, 150, 148,
144, 143, 138, 130,
139, 133, 139, 138,
129, 131, 148, 148,
124, 136, 140, 142,
146, 139, 127, 142,
154, 139, 140, 155,
151, 164, 130, 124,
125, 135, 141, 139,
133, 152, 135, 160,
154, 148, 130, 135,
132, 144, 145, 138,
151, 153, 149, 117,
142, 145, 142, 122,
135, 131, 151, 140,
139, 116, 118, 138,
139, 127, 130, 141,
132, 127, 128, 135,
131, 122, 121, 129,
132, 135, 134, 123,
150, 134, 113, 117,
145, 137, 145, 112,
128, 136, 136, 142,
134, 104, 105, 124,
142, 127, 124, 150,
120, 135, 129, 114,
125, 127, 134, 122,
134, 121, 118, 113,
121, 120, 112, 132,
116, 133, 117, 117,
119, 116, 121, 120,
125, 146, 121, 132,
113, 146, 121, 117,
111, 120, 130, 117,
117, 118, 118, 116,
134, 121, 104, 114,
111, 135, 118, 136,
110, 113, 96, 112,
124, 112, 111, 115,
95, 116, 108, 117,
116, 118, 121, 129,
117, 97, 117, 139,
111, 129, 119, 128,
113, 124, 98, 115,
134, 114, 116, 116,
106, 130, 111, 112,
112, 106, 107, 121,
104, 104, 124, 120,
114, 111, 111, 110,
127, 113, 96, 109,
127, 117, 126, 107,
113, 106, 104, 116,
118, 124, 117, 107,
101, 102, 134, 116,
110, 104, 123, 103,
97, 90, 111, 124,
104, 118, 97, 114,
105, 111, 110, 115,
83, 113, 107, 121,
92, 119, 124, 108,
97, 113, 109, 96,
96, 108, 95, 116,
114, 121, 100, 88,
113, 119, 121, 87,
95, 116, 109, 113,
106, 99, 114, 93,
110, 107, 119, 96,
117, 110, 112, 88,
110, 104, 120, 122,
98, 131, 111, 108,
85, 115, 105, 99,
92, 91, 99, 102,
98, 107, 105, 105,
121, 126, 99, 99,
100, 85, 91, 113,
92, 103, 107, 119,
78, 105, 100, 95,
96, 84, 86, 80,
112, 78, 101, 111,
112, 84, 91, 81,
95, 100, 99, 87,
88, 83, 95, 93,
104, 103, 101, 95,
89, 99, 87, 104,
100, 109, 86, 113,
85, 113, 79, 97,
99, 79, 95, 93,
109, 93, 91, 92,
86, 101, 98, 107,
88, 93, 98, 99,
90, 102, 83, 90,
99, 97, 95, 74,
90, 87, 86, 81,
94, 101, 85, 70,
90, 101, 93, 90,
91, 79, 100, 88,
85, 90, 102, 102,
82, 103, 98, 96,
97, 79, 99, 73,
84, 68, 95, 90,
83, 91, 85, 82,
68, 78, 77, 83,
79, 96, 87, 82,
96, 89, 82, 90,
71, 93, 65, 87,
88, 93, 78, 89,
95, 88, 89, 86,
71, 82, 86, 81,
85, 88, 95, 93,
86, 92, 86, 84,
90, 81, 79, 84,
83, 97, 87, 81,
84, 84, 93, 89,
81, 71, 80, 91,
78, 76, 93, 92,
113, 75, 89, 86,
64, 86, 87, 91,
76, 74, 82, 67,
78, 69, 75, 94,
90, 72, 84, 69,
96, 99, 68, 91,
88, 69, 77, 83,
74, 74, 63, 92,
73, 88, 88, 86,
76, 75, 78, 73,
70, 79, 70, 83,
87, 82, 82, 87,
75, 79, 80, 81,
77, 74, 65, 74,
76, 91, 71, 69,
69, 71, 79, 76,
74, 68, 81, 83,
72, 80, 73, 75,
83, 75, 87, 75,
73, 69, 75, 80,
69, 77, 75, 62,
76, 87, 67, 71,
82, 85, 68, 80,
59, 66, 79, 57,
72, 75, 61, 69,
76, 72, 77, 79,
76, 83, 66, 80,
79, 63, 105, 81,
71, 84, 76, 75,
75, 69, 101, 70,
85, 91, 84, 75,
62, 71, 80, 85,
77, 86, 60, 78,
86, 68, 75, 71,
61, 54, 69, 78,
83, 72, 68, 67,
78, 69, 77, 79,
61, 74, 71, 60,
54, 79, 66, 62,
62, 73, 58, 66,
67, 63, 71, 64,
78, 65, 71, 77,
65, 48, 66, 55,
66, 65, 63, 63,
61, 67, 64, 65,
55, 69, 54, 67,
63, 66, 74, 75,
65, 68, 54, 55,
65, 65, 78, 48,
61, 50, 48, 58,
59, 61, 66, 67,
50, 47, 75, 51,
58, 53, 74, 79,
65, 62, 59, 61,
67, 49, 56, 53,
53, 67, 65, 62,
69, 61, 59, 54,
57, 63, 60, 58,
43, 57, 53, 48,
54, 58, 68, 56,
59, 58, 63, 63,
39, 46, 44, 60,
67, 50, 70, 67,
73, 47, 54, 53,
53, 43, 56, 56,
64, 55, 50, 57,
53, 53, 61, 64,
59, 62, 41, 59,
55, 52, 65, 39,
54, 53, 47, 46,
50, 50, 64, 43,
53, 52, 61, 47,
56, 54, 58, 54,
57, 43, 55, 38,
55, 56, 57, 52,
50, 59, 53, 48,
45, 49, 50, 55,
61, 56, 54, 53,
49, 45, 49, 48,
54, 55, 47, 49,
50, 43, 44, 50,
43, 56, 50, 52,
58, 49, 61, 52,
48, 37, 51, 53,
48, 47, 64, 51,
52, 55, 45, 62,
43, 56, 56, 58,
58, 57, 44, 45,
36, 38, 50, 40,
54, 37, 45, 42,
45, 39, 47, 39,
47, 46, 37, 50,
47, 46, 43, 49,
52, 52, 40, 46,
57, 42, 54, 43,
33, 44, 34, 45,
42, 45, 52, 53,
53, 55, 33, 49,
50, 43, 45, 38,
43, 31, 47, 44,
39, 36, 52, 48,
46, 35, 50, 35,
39, 41, 39, 46,
40, 46, 46, 40,
50, 49, 49, 38,
46, 35, 35, 45,
50, 45, 43, 41,
42, 38, 37, 32,
46, 39, 44, 41,
45, 38, 38, 41,
47, 41, 41, 48,
39, 45, 43, 38,
36, 44, 32, 41,
53, 45, 45, 34,
38, 44, 37, 41,
34, 40, 50, 28,
41, 43, 34, 44,
43, 42, 43, 43,
24, 39, 43, 39,
23, 36, 38, 38,
50, 39, 32, 30,
35, 27, 33, 43,
38, 37, 40, 33,
28, 42, 36, 47,
28, 34, 51, 36,
40, 37, 41, 44,
32, 47, 45, 34,
36, 33, 35, 38,
35, 31, 39, 30,
35, 35, 53, 41,
35, 30, 35, 37,
38, 30, 36, 31,
34, 34, 32, 33,
32, 29, 43, 21,
38, 22, 34, 23,
29, 34, 25, 29,
26, 42, 30, 30,
32, 37, 29, 27,
38, 34, 33, 25,
37, 23, 32, 29,
27, 35, 37, 40,
41, 23, 33, 44,
32, 40, 19, 41,
39, 32, 34, 42,
42, 43, 30, 35,
40, 35, 39, 36,
25, 36, 35, 40,
29, 27, 34, 23,
30, 29, 25, 34,
22, 33, 30, 31,
36, 35, 31, 33,
25, 24, 31, 25,
32, 27, 31, 24,
36, 44, 32, 20,
28, 27, 38, 42,
27, 36, 28, 24,
30, 26, 32, 18,
19, 34, 32, 35,
40, 23, 24, 20,
33, 28, 31, 25,
39, 26, 34, 35,
33, 27, 22, 25,
25, 29, 21, 30,
34, 32, 22, 19,
23, 27, 27, 23,
27, 23, 27, 27,
27, 31, 27, 22,
31, 26, 40, 32,
23, 25, 23, 27,
20, 25, 23, 28,
27, 23, 28, 25,
21, 30, 19, 29,
34, 33, 22, 30,
19, 29, 26, 23,
12, 19, 25, 23,
25, 19, 33, 29,
21, 24, 28, 28,
25, 21, 27, 26,
25, 19, 27, 20,
19, 18, 15, 20,
18, 28, 20, 27,
28, 22, 29, 18,
22, 27, 24, 26,
17, 15, 27, 25,
17, 32, 18, 22,
19, 18, 22, 18,
15, 21, 22, 20,
23, 11, 24, 20,
14, 20, 21, 26,
24, 20, 19, 27,
22, 11, 25, 25,
25, 23, 16, 20,
23, 13, 19, 15,
14, 18, 14, 22,
17, 15, 16, 20,
24, 16, 19, 26,
22, 19, 20, 22,
22, 15, 18, 17,
17, 23, 25, 20,
22, 13, 21, 19,
16, 19, 24, 14,
12, 18, 24, 19,
22, 15, 13, 16,
16, 16, 29, 26,
24, 21, 14, 15,
21, 20, 13, 20,
21, 24, 27, 16,
16, 15, 11, 19,
17, 16, 17, 11,
12, 19, 21, 16,
11, 11, 19, 16,
19, 13, 20, 18,
17, 17, 15, 17,
16, 13, 17, 23,
15, 16, 20, 17,
17, 18, 17, 18,
10, 10, 17, 13,
11, 18, 15, 23,
23, 21, 15, 12,
16, 14, 10, 10,
17, 13, 12, 15,
14, 13, 7, 13,
14, 15, 16, 18,
16, 18, 19, 14,
15, 15, 16, 13,
14, 23, 17, 17,
10, 13, 11, 14,
15, 19, 12, 8,
7, 21, 14, 12,
14, 14, 13, 13,
12, 9, 10, 11,
8, 10, 18, 16,
13, 9, 18, 19,
11, 11, 12, 10,
14, 14, 12, 15,
9, 18, 12, 12,
12, 10, 8, 15,
9, 14, 14, 15,
11, 10, 9, 12,
11, 12, 13, 11,
11, 14, 11, 11,
9, 6, 12, 12,
9, 11, 7, 7,
11, 7, 14, 8,
12, 14, 15, 13,
10, 5, 13, 7,
7, 7, 11, 9,
18, 7, 8, 8,
11, 4, 9, 14,
11, 9, 7, 10,
12, 13, 10, 10,
6, 12, 12, 7,
18, 9, 12, 7,
8, 9, 11, 8,
8, 11, 8, 7,
10, 8, 7, 8,
9, 12, 6, 7,
8, 5, 8, 8,
8, 10, 8, 3,
10, 11, 7, 5,
3, 9, 10, 10,
9, 10, 6, 9,
12, 9, 9, 6,
10, 7, 9, 9,
11, 8, 3, 10,
7, 10, 5, 5,
12, 4, 10, 5,
6, 6, 6, 7,
9, 10, 17, 3,
13, 7, 5, 3,
3, 12, 8, 7,
6, 6, 11, 6,
8, 4, 6, 5,
9, 9, 5, 10,
2, 6, 2, 5,
9, 5, 8, 3,
5, 7, 4, 8,
3, 7, 5, 8,
4, 8, 6, 10,
6, 6, 5, 6,
8, 4, 5, 4,
2, 6, 4, 5,
5, 5, 9, 7,
5, 5, 3, 3,
3, 5, 3, 6,
2, 8, 8, 8,
4, 7, 5, 7,
6, 3, 4, 5,
4, 3, 4, 4,
13, 6, 3, 3,
5, 6, 3, 1,
4, 2, 3, 4,
2, 2, 4, 5,
6, 7, 2, 3,
5, 3, 5, 5,
2, 3, 2, 6,
2, 1, 1, 2,
7, 3, 2, 5,
5, 4, 4, 2,
1, 4, 3, 4,
4, 6, 2, 0,
5, 4, 3, 1,
5, 8, 5, 0,
3, 5, 4, 7,
2, 1, 9, 2,
7, 1, 4, 6,
0, 3, 2, 3,
1, 2, 2, 3,
1, 2, 3, 1,
1, 4, 4, 1,
2, 5, 1, 2,
3, 3, 2, 4,
6, 1, 3, 1,
1, 1, 3, 3,
1, 2, 1, 4,
3, 2, 1, 4,
3, 1, 0, 0,
0, 3, 2, 1,
2, 0, 3, 2,
0, 2, 1, 1,
1, 0, 2, 1,
2, 1, 2, 0,
4, 0, 1, 2,
1, 1, 2, 1,
0, 1, 0, 0,
0, 1, 0, 0,
0, 1, 1, 0,
0, 0, 0, 0,
0, 0, 0, 1,
2, 1, 0, 0,
0, 0, 0, 1,
0, 0, 0, 1,
0, 0, 0, 0,
1, 0, 0, 0,
1, 1, 0, 0,
0, 0, 0, 1,
0, 0, 0, 0,
0, 0, 0, 0,
0, 0, 0, 0,
0, 0, 0, 0,
0, 0, 0, 0,
0, 0, 0, 0,
0, 0, 0, 0,
0, 0, 0, 0,
0, 0, 0, 0,
0, 1, 0, 0,
0, 0, 0, 0,
0, 0, 0, 0,
0, 0, 0, 0,
0, 0, 0, 0,
0, 0, 0, 0,
0, 0, 0, 0,
0, 0, 0, 0,
0, 0, 0, 0,
0, 0, 0, 0,
1, 0, 0, 0,
0, 0, 0, 0,
0, 0, 0, 0,
1, 0, 0, 0,
0, 0, 0, 0,
0, 0, 0, 0,
0, 0, 0, 0,
0, 0, 0, 0,
0, 0, 0, 0,
0, 0, 0, 0,
0, 0, 0, 0,
0, 0, 0, 0,
0, 0, 0, 0,
0, 0, 0, 0,
0, 0, 0, 0,
0, 0, 0, 0,
0, 0, 0, 0,
0, 0, 0, 0,
0, 0, 0, 0,
0, 0, 0, 0,
0, 0, 0, 0,
0, 0, 0, 0,
0, 0, 0, 0,
0, 0, 0, 0,
0, 0, 0, 1,
0, 0, 0, 0,
0, 0, 0, 0,
0, 0, 0, 0,
0, 0, 0, 0,
0, 1, 0, 0,
0, 0, 0, 1,
0, 0, 0, 0,
0, 0, 0, 0,
0, 0, 0, 0,
0, 0, 0, 0,
0, 0, 0, 0,
0, 0, 0, 0,
0, 0, 0, 0,
0, 0, 0, 0,
0, 0, 0, 0,
1, 0, 0, 0,
0, 0, 0, 0,
0, 0, 0, 0,
0, 0, 0, 0,
0, 0, 0, 0,
0, 0, 0, 0,
0, 0, 0, 0,
0, 0, 0, 0,
0, 0, 0, 0,
0, 0, 0, 0,
0, 0, 0, 0,
0, 0, 0, 0,
0, 0, 0, 0,
0, 0, 0, 0,
0, 0, 0, 0,
0, 0, 0, 0,
0, 0, 1, 0,
0, 0, 0, 0,
0, 0, 0, 0,
0, 0, 0, 0,
0, 0, 0, 0,
0, 0, 0, 0,
0, 0, 0, 0,
0, 0, 0, 0,
0, 0, 0, 0,
0, 0, 0, 0,
0, 0, 0, 0,
0, 0, 0, 0,
0, 0, 0, 0,
0, 0, 0, 0,
0, 0, 0, 0,
0, 0, 0, 0,
0, 1, 0, 1,
0, 1, 0, 0,
0, 0, 0, 0,
0, 0, 0, 0,
0, 0, 0, 0,
0, 0, 0, 0,
0, 0, 0, 0,
0, 0, 0, 0,
0, 0, 0, 0,
0, 0, 0, 0,
0, 0, 1, 0,
0, 0, 0, 0,
0, 0, 0, 0,
0, 0, 0, 0,
0, 0, 0, 0,
0, 0, 0, 0,
0, 0, 0, 0,
0, 0, 0, 0,
0, 0, 0, 0,
0, 0, 0, 0,
0, 0, 0, 0,
0, 0, 0, 0,
0, 0, 0, 0,
0, 0, 0, 0,
0, 0, 0, 0,
0, 0, 0, 0,
0, 0, 0, 0,
0, 0, 0, 0,
0, 0, 0, 0,
0, 0, 0, 0,
0, 0, 0, 0,
0, 0, 0, 0,
0, 0, 0, 0,
0, 0, 0, 0,
0, 0, 0, 0,
0, 0, 0, 0,
0, 0, 0, 0,
0, 0, 0, 0,
0, 0, 0, 0,
0, 0, 0, 0,
0, 0, 0, 0,
0, 0, 0, 0,
0, 0, 0, 0,
0, 0, 0, 0,
0, 0, 0, 0,
0, 0, 0, 0,
0, 0, 0, 0,
0, 0, 0, 0,
0, 0, 0, 0,
0, 0, 0, 0,
0, 0, 0, 0,
0, 0, 0, 0,
0, 0, 0, 0,
0, 0, 0, 0,
0, 0, 0, 0,
0, 0, 0, 0,
0, 0, 0, 0,
0, 0, 0, 0,
0, 0, 0, 0,
0, 0, 0, 0,
0, 0, 0, 0,
0, 0, 0, 0,
0, 0, 0, 0,
0, 0, 0, 0,
0, 0, 0, 0,
0, 0, 0, 0,
0, 0, 0, 0,
0, 0, 0, 0,
0, 0, 0, 0,
0, 0, 0, 0,
0, 0, 0, 0,
0, 0, 0, 0,
0, 0, 0, 0,
0, 0, 0, 0,
0, 0, 1, 0,
0, 0, 0, 0,
0, 0, 0, 0,
0, 0, 0, 0,
0, 0, 0, 0,
0, 0, 0, 0,
0, 0, 0, 0,
0, 0, 0, 0,
0, 0, 0, 0,
0, 0, 0, 0,
0, 0, 0, 0,
0, 0, 0, 0,
0, 0, 0, 0,
0, 0, 0, 0,
0, 0, 0, 0,
0, 0, 0, 0,
0, 0, 0, 0,
0, 0, 0, 0,
0, 0, 0, 0,
0, 0, 0, 0,
0, 0, 0, 0,
0, 0, 0, 0,
0, 0, 0, 0,
0, 0, 0, 0,
0, 0, 0, 0,
0, 0, 0, 0,
0, 0, 0, 0,
0, 0, 0, 0,
0, 0, 0, 0,
0, 0, 0, 0,
0, 0, 0, 0,
0, 0, 0, 0,
0, 0, 0, 0,
0, 0, 0, 0,
0, 0, 0, 0,
0, 0, 0, 0,
0, 0, 0, 0,
0, 0, 0, 0,
0, 0, 0, 0,
0, 0, 0, 0,
0, 0, 0, 0,
0, 0, 0, 0,
0, 0, 0, 0,
0, 0, 0, 0,
0, 0, 0, 0,
0, 0, 0, 0,
0, 0, 0, 0,
0, 0, 0, 0,
0, 0, 0, 0,
0, 0, 0, 0,
0, 0, 0, 0,
0, 0, 0, 0,
0, 0, 0, 0,
0, 0, 0, 0,
0, 0, 0, 0,
0, 0, 0, 0,
0, 0, 0, 0,
0, 0, 0, 0,
0, 0, 0, 0,
0, 0, 0, 0,
0, 0, 0, 0,
0, 0, 0, 0,
0, 0, 0, 0,
0, 0, 0, 0,
0, 0, 0, 0,
0, 0, 0, 0,
0, 0, 0, 0,
0, 0, 0, 0,
0, 0, 0, 0,
0, 0, 0, 0,
0, 0, 0, 0,
0, 0, 0, 0,
0, 0, 0, 0,
0, 0, 0, 0,
0, 0, 0, 0,
0, 0, 0, 0,
0, 0, 0, 0,
0, 0, 0, 0,
#ENDOFDATA   :