File: hyperSpy/iPyNb3/oxford.msa
#FORMAT      : EMSA/MAS Spectral Data File
#VERSION     : 1.0
#TITLE       : Map Sum Spectrum
#DATE        : 19-MAY-2011
#TIME        : 05:07
#OWNER       : Unknown
#NPOINTS     : 2048
#NCOLUMNS    : 1
#XUNITS      : eV
#YUNITS      : counts
#DATATYPE    : Y
#XPERCHAN    : 10
#OFFSET      : -200
#BEAMKV      : 20
#SIGNALTYPE  : EDS
#ELEVANGLE   : 35
#AZIMANGLE   : 0
#LIVETIME    : 14386.8
#REALTIME    : 26400.4
#PROBECUR    : 0
#CHOFFSET    : 0.0
#XLABEL      : Energy (eV)
#YLABEL      : Counts
#XPOSITION   : 46.0662
#YPOSITION   : 51.8563
#ZPOSITION   : 18.7728
#MAGCAM      : 441
#SPECTRUM    :
0,
0,
0,
0,
0,
3,
85,
2552,
31270,
167717,
451810,
695752,
568120,
217184,
76843,
100425,
156719,
215248,
273261,
356002,
622252,
1624190,
4053399,
6712840,
6435833,
3424386,
1041657,
272443,
192134,
235332,
262150,
275594,
343070,
584905,
1283472,
2514183,
3351404,
2751723,
1421488,
614776,
409248,
361332,
303271,
281831,
314020,
349804,
343004,
312243,
295728,
298550,
302984,
303553,
306331,
313203,
323572,
336354,
348024,
359888,
371048,
381393,
390464,
401389,
409826,
415821,
420724,
426575,
434542,
444240,
461337,
509998,
643562,
912895,
1224266,
1341676,
1153987,
847391,
628805,
536856,
514132,
511935,
521673,
542361,
588507,
658670,
720216,
725867,
674051,
609882,
567899,
549170,
544114,
547055,
564322,
629174,
821381,
1203804,
1686096,
1988639,
1910494,
1592311,
1338064,
1234481,
1157929,
1010651,
826619,
687481,
615457,
594432,
587453,
582402,
577489,
573114,
567218,
563142,
562805,
574088,
597070,
636488,
673712,
705454,
730344,
787338,
969947,
1465497,
2586874,
4588787,
7151462,
9191854,
9605342,
8490137,
7118374,
6518138,
6384955,
5804136,
4455940,
2833084,
1573313,
879449,
613676,
571290,
626206,
713930,
776984,
780440,
714864,
610029,
509439,
436712,
393046,
370495,
358423,
353061,
351007,
353666,
357860,
362939,
364738,
363504,
362078,
362691,
370286,
385143,
403197,
420005,
427253,
425684,
414656,
396329,
377886,
358846,
344858,
335637,
328811,
322304,
320234,
318223,
315609,
315164,
313955,
313345,
312615,
313193,
313300,
313621,
316895,
320004,
325366,
331039,
344451,
383768,
480502,
680206,
1002883,
1390278,
1708942,
1796926,
1614244,
1252069,
867443,
582333,
416587,
340615,
312796,
304744,
306372,
313335,
328011,
354262,
389726,
430965,
463505,
472925,
451866,
410330,
363641,
326465,
302502,
291795,
287504,
286405,
285801,
285186,
284998,
283983,
284306,
285648,
287171,
293449,
309943,
352626,
451506,
648158,
974121,
1412468,
1864115,
2170127,
2195891,
1930673,
1488318,
1027960,
673141,
457840,
352676,
313965,
306483,
308880,
314438,
323240,
332759,
344738,
356666,
369591,
386028,
411970,
448631,
487868,
516934,
517255,
485871,
431330,
372422,
321902,
286442,
266247,
257283,
254191,
254516,
255591,
255780,
254331,
250400,
246561,
242816,
239359,
236287,
234961,
234391,
233709,
233603,
233183,
233302,
233257,
233467,
232666,
233386,
233984,
232874,
232212,
231096,
228776,
227038,
223869,
222713,
221938,
221659,
221342,
220961,
220918,
220904,
220852,
220315,
218546,
218104,
217099,
215537,
214679,
214183,
213813,
213653,
213499,
211655,
211167,
210895,
209458,
209153,
207377,
207340,
206958,
206715,
205690,
204950,
205180,
205294,
205266,
206590,
208999,
213260,
218361,
224424,
228962,
230808,
227904,
221666,
214007,
206813,
200682,
197269,
194228,
192561,
191515,
191431,
190520,
189364,
189400,
188259,
187813,
187086,
186728,
186874,
186375,
186055,
187271,
187521,
186991,
186818,
186938,
186019,
185348,
184563,
184313,
183659,
183292,
181932,
181538,
180419,
178777,
177979,
175993,
174885,
173918,
172933,
173031,
171960,
171655,
171369,
171018,
171192,
170970,
171209,
170343,
170074,
169487,
167936,
167214,
165905,
164164,
164550,
162840,
162627,
161839,
161551,
160456,
159852,
159952,
159241,
158730,
158200,
158341,
157185,
156478,
155592,
155241,
154195,
152994,
153233,
152649,
152473,
151559,
150996,
150527,
150458,
150223,
149548,
148763,
148456,
148411,
148006,
148017,
148132,
147993,
147621,
146946,
146060,
144890,
144221,
143446,
141986,
141441,
141070,
140532,
139906,
139835,
138777,
138480,
138444,
138163,
137725,
137102,
137395,
137048,
136465,
135897,
135934,
134818,
134672,
133696,
133201,
132656,
132032,
131898,
131335,
130606,
130747,
129579,
129853,
129266,
128838,
129019,
129662,
129633,
130299,
130826,
131624,
133809,
136412,
139381,
142956,
146907,
148753,
149577,
147824,
145572,
140080,
135242,
130668,
126526,
123201,
120807,
120258,
119073,
118267,
118310,
117501,
117293,
116449,
115903,
114896,
114606,
114301,
113370,
113031,
112144,
112093,
111514,
110939,
110297,
110029,
109156,
109278,
108455,
108851,
107864,
107268,
107034,
106840,
105989,
106048,
105907,
105390,
105319,
104724,
103916,
103360,
103622,
103256,
102971,
102651,
102068,
101994,
101973,
101987,
101586,
101607,
103479,
105536,
109628,
116050,
126850,
143104,
167914,
201881,
248275,
306510,
375586,
447576,
510963,
558937,
577527,
561695,
514850,
445794,
367825,
289531,
225797,
176221,
141847,
121008,
108077,
100968,
97139,
95056,
93466,
92472,
90787,
89994,
89352,
88024,
87045,
86426,
85669,
85378,
84755,
84276,
83843,
83389,
83096,
82635,
82258,
82180,
81539,
81329,
81309,
81346,
81001,
81081,
80839,
81218,
81011,
80577,
79896,
78724,
78538,
77312,
76433,
76145,
75622,
75429,
74536,
74735,
73930,
73603,
73400,
73210,
72452,
72246,
71682,
71533,
71104,
70931,
70444,
69707,
69717,
69699,
69126,
69130,
68609,
68575,
68746,
67739,
68051,
68890,
68944,
69874,
69864,
71021,
71171,
71688,
71975,
71912,
71596,
71855,
71061,
71014,
70550,
70077,
69674,
69322,
68706,
68662,
68501,
70412,
74093,
81008,
92418,
108653,
130467,
155653,
183372,
207649,
226736,
235539,
233838,
221230,
200549,
174867,
148883,
125038,
105791,
91327,
81863,
75046,
71700,
69483,
68092,
67503,
67575,
67397,
67304,
67239,
66542,
65420,
63811,
62516,
59683,
56890,
54817,
52542,
50615,
49206,
48475,
47510,
47056,
46678,
46277,
45592,
45396,
45638,
45004,
45064,
44358,
44214,
44073,
43683,
43339,
43385,
42537,
42383,
42386,
42232,
41976,
41593,
41506,
41414,
40968,
40761,
40458,
40596,
40140,
39704,
39521,
39428,
39143,
38935,
38826,
38417,
38352,
38223,
38171,
37398,
37377,
37081,
37121,
36881,
36708,
36637,
36230,
36061,
35990,
35872,
35844,
35513,
35532,
35272,
35132,
35091,
34845,
34663,
34296,
34070,
33964,
33790,
33409,
32941,
32953,
32671,
32753,
32618,
32721,
33081,
33698,
34421,
35883,
37499,
39623,
41216,
43222,
44438,
45075,
44942,
43842,
42147,
40349,
38127,
36171,
34380,
33065,
32007,
31657,
31182,
31367,
31189,
31577,
31218,
31252,
31456,
31512,
31262,
30923,
30475,
30006,
29384,
28622,
27772,
27332,
26474,
25954,
25437,
24937,
24668,
24069,
23930,
23823,
23525,
23308,
23043,
22768,
22523,
22343,
22320,
22386,
22024,
22063,
21917,
21846,
21802,
21635,
21650,
21454,
21403,
21094,
21308,
20671,
20383,
20201,
19969,
19878,
19561,
19569,
19210,
19130,
18874,
18791,
18710,
18493,
18262,
18093,
18074,
17942,
17819,
17616,
17433,
17486,
17186,
17142,
17160,
16856,
16714,
16496,
16600,
16453,
16231,
16211,
15986,
15766,
15721,
15788,
15518,
15325,
15280,
15027,
15124,
14757,
14850,
14820,
14551,
14463,
14133,
14123,
14068,
14015,
13817,
13661,
13548,
13438,
13327,
13346,
13103,
12855,
12843,
12818,
12773,
12709,
12519,
12435,
12269,
12307,
12181,
12087,
12015,
11833,
11604,
11541,
11614,
11430,
11140,
11171,
11042,
10741,
10910,
10533,
10682,
10410,
10318,
10208,
10023,
9987,
9948,
9940,
9698,
9718,
9573,
9523,
9396,
9272,
9203,
9051,
9065,
8864,
8801,
8689,
8484,
8491,
8418,
8275,
8132,
8062,
8013,
7766,
7789,
7829,
7558,
7576,
7307,
7294,
7321,
7155,
7050,
7021,
6917,
6783,
6757,
6790,
6580,
6512,
6485,
6407,
6258,
6177,
6147,
5915,
5929,
5876,
5841,
5793,
5657,
5564,
5507,
5462,
5378,
5256,
5229,
5087,
5044,
4918,
4929,
4866,
4750,
4666,
4438,
4454,
4467,
4404,
4367,
4331,
4167,
4144,
4102,
3905,
3869,
3919,
3769,
3755,
3646,
3523,
3464,
3405,
3425,
3384,
3258,
3189,
3151,
3090,
3020,
3039,
2908,
2791,
2786,
2712,
2650,
2613,
2542,
2517,
2438,
2418,
2287,
2250,
2150,
2149,
2073,
2042,
1961,
1970,
1893,
1855,
1810,
1723,
1656,
1593,
1568,
1545,
1439,
1434,
1339,
1346,
1245,
1209,
1162,
1124,
1055,
979,
996,
1020,
1023,
931,
969,
895,
933,
870,
926,
891,
882,
920,
874,
870,
867,
#ENDOFDATA   :