File: dtsa2/detectors/Sirion-NiOnCu.msa
#FORMAT      : EMSA/MAS Spectral Data File
#VERSION     : 1.0
#TITLE       : Sample 3 - Spectrum 9
#DATE        : 27-AUG-2013
#TIME        : 10:59
#OWNER       :
#NPOINTS     : 2048.0
#NCOLUMNS    : 1.0
#XUNITS      : keV
#YUNITS      : counts
#DATATYPE    : XY
#XPERCHAN    : 0.01
#OFFSET      : -0.2
#SIGNALTYPE  : EDS
#CHOFFSET    : 20.0
#LIVETIME    : 20.06991
#REALTIME    : 29.5014
#BEAMKV      : 20.0
#PROBECUR    : 0.0
#MAGCAM      : 2999.0
#XTILTSTGE   : 0.0
#AZIMANGLE   : 0.0
#ELEVANGLE   : 35.0
#XPOSITION mm: 64.2922
#YPOSITION mm: 63.8807
#ZPOSITION mm: 41.3056
##OXINSTPT   : 3
##OXINSTSTROB: 54.30
##OXINSTELEMS: 8,28,29,74,6
##OXINSTLABEL: 8, 0.525, O
##OXINSTLABEL: 28, 7.478, Ni
##OXINSTLABEL: 28, 8.265, Ni
##OXINSTLABEL: 28, 0.851, Ni
##OXINSTLABEL: 28, 0.762, Ni
##OXINSTLABEL: 28, 0.743, Ni
##OXINSTLABEL: 29, 8.048, Cu
##OXINSTLABEL: 29, 8.905, Cu
##OXINSTLABEL: 29, 0.930, Cu
##OXINSTLABEL: 29, 0.832, Cu
##OXINSTLABEL: 29, 0.811, Cu
##OXINSTLABEL: 74, 8.398, W
##OXINSTLABEL: 74, 9.673, W
##OXINSTLABEL: 74, 9.962, W
##OXINSTLABEL: 74, 8.724, W
##OXINSTLABEL: 74, 11.286, W
##OXINSTLABEL: 74, 11.608, W
##OXINSTLABEL: 74, 7.388, W
##OXINSTLABEL: 74, 1.775, W
##OXINSTLABEL: 74, 2.035, W
##OXINSTLABEL: 74, 1.379, W
##OXINSTLABEL: 6, 0.277, C
#SPECTRUM    : Spectral Data Starts Here
-0.20000, 0.0
-0.18000, 0.0
-0.16000, 0.0
-0.14000, 0.0
-0.12000, 0.0
-0.10000, 0.0
-0.08000, 1.0
-0.06000, 2.0
-0.04000, 43.0
-0.02000, 188.0
0.00000, 406.0
0.02000, 664.0
0.04000, 766.0
0.06000, 588.0
0.08000, 223.0
0.10000, 91.0
0.12000, 100.0
0.14000, 129.0
0.16000, 130.0
0.18000, 159.0
0.20000, 179.0
0.22000, 288.0
0.24000, 469.0
0.26000, 625.0
0.28000, 676.0
0.30000, 437.0
0.32000, 278.0
0.34000, 216.0
0.36000, 229.0
0.38000, 268.0
0.40000, 325.0
0.42000, 366.0
0.44000, 480.0
0.46000, 631.0
0.48000, 1117.0
0.50000, 1738.0
0.52000, 2258.0
0.54000, 1933.0
0.56000, 1281.0
0.58000, 870.0
0.60000, 730.0
0.62000, 746.0
0.64000, 856.0
0.66000, 936.0
0.68000, 1316.0
0.70000, 1802.0
0.72000, 2818.0
0.74000, 3583.0
0.76000, 4005.0
0.78000, 4853.0
0.80000, 7286.0
0.82000, 11553.0
0.84000, 16009.0
0.86000, 16457.0
0.88000, 12426.0
0.90000, 8072.0
0.92000, 5920.0
0.94000, 4728.0
0.96000, 3298.0
0.98000, 1858.0
1.00000, 853.0
1.02000, 442.0
1.04000, 339.0
1.06000, 351.0
1.08000, 286.0
1.10000, 330.0
1.12000, 321.0
1.14000, 331.0
1.16000, 331.0
1.18000, 363.0
1.20000, 385.0
1.22000, 378.0
1.24000, 379.0
1.26000, 383.0
1.28000, 393.0
1.30000, 411.0
1.32000, 405.0
1.34000, 485.0
1.36000, 475.0
1.38000, 456.0
1.40000, 478.0
1.42000, 445.0
1.44000, 492.0
1.46000, 487.0
1.48000, 495.0
1.50000, 477.0
1.52000, 510.0
1.54000, 520.0
1.56000, 514.0
1.58000, 470.0
1.60000, 509.0
1.62000, 505.0
1.64000, 530.0
1.66000, 558.0
1.68000, 580.0
1.70000, 618.0
1.72000, 691.0
1.74000, 781.0
1.76000, 863.0
1.78000, 866.0
1.80000, 889.0
1.82000, 850.0
1.84000, 749.0
1.86000, 653.0
1.88000, 632.0
1.90000, 576.0
1.92000, 550.0
1.94000, 512.0
1.96000, 535.0
1.98000, 578.0
2.00000, 589.0
2.02000, 556.0
2.04000, 559.0
2.06000, 544.0
2.08000, 574.0
2.10000, 574.0
2.12000, 569.0
2.14000, 549.0
2.16000, 582.0
2.18000, 562.0
2.20000, 542.0
2.22000, 561.0
2.24000, 547.0
2.26000, 589.0
2.28000, 563.0
2.30000, 570.0
2.32000, 587.0
2.34000, 548.0
2.36000, 577.0
2.38000, 587.0
2.40000, 545.0
2.42000, 535.0
2.44000, 533.0
2.46000, 560.0
2.48000, 571.0
2.50000, 557.0
2.52000, 543.0
2.54000, 555.0
2.56000, 536.0
2.58000, 547.0
2.60000, 528.0
2.62000, 529.0
2.64000, 550.0
2.66000, 560.0
2.68000, 529.0
2.70000, 549.0
2.72000, 534.0
2.74000, 522.0
2.76000, 524.0
2.78000, 567.0
2.80000, 572.0
2.82000, 541.0
2.84000, 509.0
2.86000, 544.0
2.88000, 495.0
2.90000, 545.0
2.92000, 523.0
2.94000, 532.0
2.96000, 532.0
2.98000, 485.0
3.00000, 526.0
3.02000, 508.0
3.04000, 494.0
3.06000, 510.0
3.08000, 499.0
3.10000, 477.0
3.12000, 502.0
3.14000, 515.0
3.16000, 515.0
3.18000, 516.0
3.20000, 482.0
3.22000, 477.0
3.24000, 475.0
3.26000, 474.0
3.28000, 472.0
3.30000, 468.0
3.32000, 520.0
3.34000, 466.0
3.36000, 472.0
3.38000, 526.0
3.40000, 465.0
3.42000, 490.0
3.44000, 458.0
3.46000, 474.0
3.48000, 465.0
3.50000, 462.0
3.52000, 432.0
3.54000, 417.0
3.56000, 426.0
3.58000, 431.0
3.60000, 459.0
3.62000, 438.0
3.64000, 469.0
3.66000, 437.0
3.68000, 434.0
3.70000, 430.0
3.72000, 426.0
3.74000, 426.0
3.76000, 416.0
3.78000, 431.0
3.80000, 459.0
3.82000, 429.0
3.84000, 417.0
3.86000, 410.0
3.88000, 446.0
3.90000, 427.0
3.92000, 396.0
3.94000, 411.0
3.96000, 386.0
3.98000, 432.0
4.00000, 405.0
4.02000, 408.0
4.04000, 384.0
4.06000, 377.0
4.08000, 366.0
4.10000, 397.0
4.12000, 385.0
4.14000, 397.0
4.16000, 390.0
4.18000, 380.0
4.20000, 370.0
4.22000, 376.0
4.24000, 352.0
4.26000, 382.0
4.28000, 337.0
4.30000, 342.0
4.32000, 413.0
4.34000, 372.0
4.36000, 345.0
4.38000, 355.0
4.40000, 384.0
4.42000, 396.0
4.44000, 330.0
4.46000, 327.0
4.48000, 348.0
4.50000, 322.0
4.52000, 343.0
4.54000, 364.0
4.56000, 353.0
4.58000, 344.0
4.60000, 348.0
4.62000, 354.0
4.64000, 338.0
4.66000, 342.0
4.68000, 317.0
4.70000, 352.0
4.72000, 331.0
4.74000, 336.0
4.76000, 322.0
4.78000, 315.0
4.80000, 331.0
4.82000, 332.0
4.84000, 318.0
4.86000, 336.0
4.88000, 307.0
4.90000, 314.0
4.92000, 329.0
4.94000, 313.0
4.96000, 315.0
4.98000, 289.0
5.00000, 297.0
5.02000, 322.0
5.04000, 307.0
5.06000, 289.0
5.08000, 311.0
5.10000, 300.0
5.12000, 301.0
5.14000, 312.0
5.16000, 276.0
5.18000, 279.0
5.20000, 304.0
5.22000, 303.0
5.24000, 279.0
5.26000, 263.0
5.28000, 308.0
5.30000, 291.0
5.32000, 314.0
5.34000, 305.0
5.36000, 282.0
5.38000, 277.0
5.40000, 279.0
5.42000, 277.0
5.44000, 304.0
5.46000, 272.0
5.48000, 281.0
5.50000, 284.0
5.52000, 262.0
5.54000, 286.0
5.56000, 268.0
5.58000, 265.0
5.60000, 271.0
5.62000, 266.0
5.64000, 277.0
5.66000, 252.0
5.68000, 276.0
5.70000, 269.0
5.72000, 248.0
5.74000, 267.0
5.76000, 258.0
5.78000, 270.0
5.80000, 263.0
5.82000, 254.0
5.84000, 261.0
5.86000, 265.0
5.88000, 256.0
5.90000, 249.0
5.92000, 262.0
5.94000, 245.0
5.96000, 276.0
5.98000, 240.0
6.00000, 247.0
6.02000, 233.0
6.04000, 267.0
6.06000, 252.0
6.08000, 241.0
6.10000, 213.0
6.12000, 246.0
6.14000, 224.0
6.16000, 249.0
6.18000, 237.0
6.20000, 262.0
6.22000, 250.0
6.24000, 241.0
6.26000, 232.0
6.28000, 262.0
6.30000, 233.0
6.32000, 231.0
6.34000, 243.0
6.36000, 231.0
6.38000, 244.0
6.40000, 247.0
6.42000, 252.0
6.44000, 244.0
6.46000, 220.0
6.48000, 216.0
6.50000, 223.0
6.52000, 207.0
6.54000, 220.0
6.56000, 215.0
6.58000, 237.0
6.60000, 209.0
6.62000, 215.0
6.64000, 214.0
6.66000, 211.0
6.68000, 224.0
6.70000, 206.0
6.72000, 194.0
6.74000, 243.0
6.76000, 198.0
6.78000, 228.0
6.80000, 233.0
6.82000, 228.0
6.84000, 253.0
6.86000, 233.0
6.88000, 244.0
6.90000, 232.0
6.92000, 241.0
6.94000, 220.0
6.96000, 211.0
6.98000, 220.0
7.00000, 247.0
7.02000, 218.0
7.04000, 216.0
7.06000, 237.0
7.08000, 224.0
7.10000, 224.0
7.12000, 220.0
7.14000, 202.0
7.16000, 213.0
7.18000, 222.0
7.20000, 219.0
7.22000, 210.0
7.24000, 215.0
7.26000, 232.0
7.28000, 252.0
7.30000, 315.0
7.32000, 457.0
7.34000, 722.0
7.36000, 1204.0
7.38000, 1913.0
7.40000, 2772.0
7.42000, 3686.0
7.44000, 4507.0
7.46000, 5049.0
7.48000, 5020.0
7.50000, 4678.0
7.52000, 3930.0
7.54000, 2883.0
7.56000, 1888.0
7.58000, 1212.0
7.60000, 805.0
7.62000, 467.0
7.64000, 313.0
7.66000, 246.0
7.68000, 226.0
7.70000, 218.0
7.72000, 204.0
7.74000, 210.0
7.76000, 221.0
7.78000, 201.0
7.80000, 211.0
7.82000, 236.0
7.84000, 221.0
7.86000, 352.0
7.88000, 526.0
7.90000, 805.0
7.92000, 1327.0
7.94000, 2131.0
7.96000, 3164.0
7.98000, 4249.0
8.00000, 5384.0
8.02000, 6148.0
8.04000, 6543.0
8.06000, 6151.0
8.08000, 5285.0
8.10000, 4283.0
8.12000, 2993.0
8.14000, 2113.0
8.16000, 1362.0
8.18000, 1094.0
8.20000, 891.0
8.22000, 842.0
8.24000, 891.0
8.26000, 839.0
8.28000, 855.0
8.30000, 753.0
8.32000, 634.0
8.34000, 529.0
8.36000, 458.0
8.38000, 378.0
8.40000, 304.0
8.42000, 250.0
8.44000, 245.0
8.46000, 197.0
8.48000, 179.0
8.50000, 174.0
8.52000, 166.0
8.54000, 190.0
8.56000, 167.0
8.58000, 165.0
8.60000, 163.0
8.62000, 145.0
8.64000, 159.0
8.66000, 148.0
8.68000, 187.0
8.70000, 210.0
8.72000, 208.0
8.74000, 200.0
8.76000, 253.0
8.78000, 304.0
8.80000, 418.0
8.82000, 555.0
8.84000, 662.0
8.86000, 803.0
8.88000, 892.0
8.90000, 942.0
8.92000, 856.0
8.94000, 816.0
8.96000, 683.0
8.98000, 566.0
9.00000, 408.0
9.02000, 308.0
9.04000, 242.0
9.06000, 195.0
9.08000, 139.0
9.10000, 141.0
9.12000, 127.0
9.14000, 132.0
9.16000, 131.0
9.18000, 116.0
9.20000, 138.0
9.22000, 111.0
9.24000, 134.0
9.26000, 118.0
9.28000, 124.0
9.30000, 139.0
9.32000, 124.0
9.34000, 127.0
9.36000, 127.0
9.38000, 128.0
9.40000, 127.0
9.42000, 121.0
9.44000, 126.0
9.46000, 114.0
9.48000, 120.0
9.50000, 108.0
9.52000, 126.0
9.54000, 135.0
9.56000, 143.0
9.58000, 139.0
9.60000, 143.0
9.62000, 160.0
9.64000, 145.0
9.66000, 140.0
9.68000, 131.0
9.70000, 142.0
9.72000, 140.0
9.74000, 142.0
9.76000, 114.0
9.78000, 112.0
9.80000, 126.0
9.82000, 131.0
9.84000, 118.0
9.86000, 130.0
9.88000, 115.0
9.90000, 133.0
9.92000, 126.0
9.94000, 132.0
9.96000, 143.0
9.98000, 130.0
10.00000, 121.0
10.02000, 122.0
10.04000, 114.0
10.06000, 130.0
10.08000, 115.0
10.10000, 99.0
10.12000, 107.0
10.14000, 115.0
10.16000, 111.0
10.18000, 121.0
10.20000, 106.0
10.22000, 93.0
10.24000, 104.0
10.26000, 101.0
10.28000, 128.0
10.30000, 103.0
10.32000, 114.0
10.34000, 112.0
10.36000, 108.0
10.38000, 108.0
10.40000, 96.0
10.42000, 108.0
10.44000, 103.0
10.46000, 99.0
10.48000, 106.0
10.50000, 105.0
10.52000, 107.0
10.54000, 87.0
10.56000, 100.0
10.58000, 95.0
10.60000, 84.0
10.62000, 103.0
10.64000, 101.0
10.66000, 94.0
10.68000, 97.0
10.70000, 93.0
10.72000, 99.0
10.74000, 93.0
10.76000, 93.0
10.78000, 97.0
10.80000, 103.0
10.82000, 88.0
10.84000, 90.0
10.86000, 94.0
10.88000, 95.0
10.90000, 112.0
10.92000, 98.0
10.94000, 100.0
10.96000, 87.0
10.98000, 78.0
11.00000, 82.0
11.02000, 75.0
11.04000, 92.0
11.06000, 95.0
11.08000, 86.0
11.10000, 92.0
11.12000, 98.0
11.14000, 81.0
11.16000, 82.0
11.18000, 92.0
11.20000, 90.0
11.22000, 91.0
11.24000, 94.0
11.26000, 78.0
11.28000, 84.0
11.30000, 98.0
11.32000, 83.0
11.34000, 99.0
11.36000, 96.0
11.38000, 73.0
11.40000, 88.0
11.42000, 82.0
11.44000, 84.0
11.46000, 89.0
11.48000, 76.0
11.50000, 100.0
11.52000, 75.0
11.54000, 93.0
11.56000, 86.0
11.58000, 87.0
11.60000, 84.0
11.62000, 80.0
11.64000, 82.0
11.66000, 68.0
11.68000, 90.0
11.70000, 84.0
11.72000, 65.0
11.74000, 87.0
11.76000, 69.0
11.78000, 92.0
11.80000, 75.0
11.82000, 73.0
11.84000, 86.0
11.86000, 82.0
11.88000, 74.0
11.90000, 77.0
11.92000, 85.0
11.94000, 65.0
11.96000, 67.0
11.98000, 82.0
12.00000, 82.0
12.02000, 87.0
12.04000, 65.0
12.06000, 64.0
12.08000, 68.0
12.10000, 83.0
12.12000, 74.0
12.14000, 68.0
12.16000, 65.0
12.18000, 79.0
12.20000, 73.0
12.22000, 65.0
12.24000, 76.0
12.26000, 70.0
12.28000, 71.0
12.30000, 65.0
12.32000, 74.0
12.34000, 59.0
12.36000, 68.0
12.38000, 71.0
12.40000, 65.0
12.42000, 74.0
12.44000, 58.0
12.46000, 66.0
12.48000, 74.0
12.50000, 71.0
12.52000, 87.0
12.54000, 80.0
12.56000, 65.0
12.58000, 77.0
12.60000, 55.0
12.62000, 71.0
12.64000, 70.0
12.66000, 79.0
12.68000, 62.0
12.70000, 70.0
12.72000, 58.0
12.74000, 69.0
12.76000, 66.0
12.78000, 58.0
12.80000, 57.0
12.82000, 63.0
12.84000, 63.0
12.86000, 66.0
12.88000, 59.0
12.90000, 66.0
12.92000, 60.0
12.94000, 70.0
12.96000, 49.0
12.98000, 66.0
13.00000, 51.0
13.02000, 51.0
13.04000, 61.0
13.06000, 72.0
13.08000, 59.0
13.10000, 58.0
13.12000, 60.0
13.14000, 46.0
13.16000, 51.0
13.18000, 52.0
13.20000, 42.0
13.22000, 55.0
13.24000, 52.0
13.26000, 50.0
13.28000, 52.0
13.30000, 47.0
13.32000, 62.0
13.34000, 57.0
13.36000, 52.0
13.38000, 45.0
13.40000, 63.0
13.42000, 55.0
13.44000, 66.0
13.46000, 53.0
13.48000, 64.0
13.50000, 56.0
13.52000, 45.0
13.54000, 46.0
13.56000, 60.0
13.58000, 65.0
13.60000, 76.0
13.62000, 56.0
13.64000, 63.0
13.66000, 56.0
13.68000, 62.0
13.70000, 54.0
13.72000, 51.0
13.74000, 45.0
13.76000, 55.0
13.78000, 53.0
13.80000, 51.0
13.82000, 60.0
13.84000, 53.0
13.86000, 51.0
13.88000, 42.0
13.90000, 44.0
13.92000, 44.0
13.94000, 42.0
13.96000, 46.0
13.98000, 50.0
14.00000, 52.0
14.02000, 54.0
14.04000, 42.0
14.06000, 58.0
14.08000, 32.0
14.10000, 36.0
14.12000, 33.0
14.14000, 41.0
14.16000, 45.0
14.18000, 51.0
14.20000, 32.0
14.22000, 50.0
14.24000, 44.0
14.26000, 44.0
14.28000, 35.0
14.30000, 33.0
14.32000, 40.0
14.34000, 34.0
14.36000, 35.0
14.38000, 33.0
14.40000, 45.0
14.42000, 45.0
14.44000, 47.0
14.46000, 38.0
14.48000, 34.0
14.50000, 31.0
14.52000, 40.0
14.54000, 31.0
14.56000, 33.0
14.58000, 36.0
14.60000, 32.0
14.62000, 37.0
14.64000, 46.0
14.66000, 46.0
14.68000, 36.0
14.70000, 38.0
14.72000, 39.0
14.74000, 33.0
14.76000, 57.0
14.78000, 37.0
14.80000, 46.0
14.82000, 29.0
14.84000, 46.0
14.86000, 39.0
14.88000, 40.0
14.90000, 42.0
14.92000, 58.0
14.94000, 52.0
14.96000, 43.0
14.98000, 49.0
15.00000, 38.0
15.02000, 49.0
15.04000, 36.0
15.06000, 33.0
15.08000, 37.0
15.10000, 39.0
15.12000, 31.0
15.14000, 24.0
15.16000, 32.0
15.18000, 31.0
15.20000, 41.0
15.22000, 42.0
15.24000, 22.0
15.26000, 43.0
15.28000, 27.0
15.30000, 19.0
15.32000, 36.0
15.34000, 35.0
15.36000, 37.0
15.38000, 31.0
15.40000, 38.0
15.42000, 38.0
15.44000, 41.0
15.46000, 47.0
15.48000, 56.0
15.50000, 42.0
15.52000, 56.0
15.54000, 41.0
15.56000, 42.0
15.58000, 46.0
15.60000, 41.0
15.62000, 34.0
15.64000, 35.0
15.66000, 28.0
15.68000, 30.0
15.70000, 37.0
15.72000, 27.0
15.74000, 31.0
15.76000, 33.0
15.78000, 33.0
15.80000, 39.0
15.82000, 28.0
15.84000, 16.0
15.86000, 31.0
15.88000, 27.0
15.90000, 34.0
15.92000, 27.0
15.94000, 33.0
15.96000, 21.0
15.98000, 34.0
16.00000, 41.0
16.02000, 35.0
16.04000, 27.0
16.06000, 35.0
16.08000, 44.0
16.10000, 35.0
16.12000, 38.0
16.14000, 35.0
16.16000, 28.0
16.18000, 33.0
16.20000, 38.0
16.22000, 32.0
16.24000, 21.0
16.26000, 35.0
16.28000, 33.0
16.30000, 27.0
16.32000, 29.0
16.34000, 30.0
16.36000, 27.0
16.38000, 22.0
16.40000, 20.0
16.42000, 28.0
16.44000, 29.0
16.46000, 24.0
16.48000, 27.0
16.50000, 34.0
16.52000, 24.0
16.54000, 28.0
16.56000, 26.0
16.58000, 24.0
16.60000, 27.0
16.62000, 24.0
16.64000, 25.0
16.66000, 27.0
16.68000, 9.0
16.70000, 24.0
16.72000, 21.0
16.74000, 17.0
16.76000, 23.0
16.78000, 24.0
16.80000, 17.0
16.82000, 18.0
16.84000, 21.0
16.86000, 15.0
16.88000, 21.0
16.90000, 17.0
16.92000, 19.0
16.94000, 27.0
16.96000, 14.0
16.98000, 28.0
17.00000, 23.0
17.02000, 22.0
17.04000, 20.0
17.06000, 17.0
17.08000, 21.0
17.10000, 20.0
17.12000, 23.0
17.14000, 24.0
17.16000, 14.0
17.18000, 11.0
17.20000, 18.0
17.22000, 25.0
17.24000, 24.0
17.26000, 22.0
17.28000, 22.0
17.30000, 10.0
17.32000, 15.0
17.34000, 19.0
17.36000, 11.0
17.38000, 21.0
17.40000, 13.0
17.42000, 15.0
17.44000, 11.0
17.46000, 9.0
17.48000, 18.0
17.50000, 17.0
17.52000, 8.0
17.54000, 12.0
17.56000, 12.0
17.58000, 14.0
17.60000, 12.0
17.62000, 11.0
17.64000, 17.0
17.66000, 11.0
17.68000, 13.0
17.70000, 10.0
17.72000, 15.0
17.74000, 12.0
17.76000, 7.0
17.78000, 11.0
17.80000, 9.0
17.82000, 12.0
17.84000, 17.0
17.86000, 13.0
17.88000, 10.0
17.90000, 15.0
17.92000, 15.0
17.94000, 12.0
17.96000, 14.0
17.98000, 14.0
18.00000, 11.0
18.02000, 12.0
18.04000, 13.0
18.06000, 8.0
18.08000, 18.0
18.10000, 11.0
18.12000, 8.0
18.14000, 9.0
18.16000, 7.0
18.18000, 9.0
18.20000, 10.0
18.22000, 13.0
18.24000, 6.0
18.26000, 12.0
18.28000, 8.0
18.30000, 11.0
18.32000, 11.0
18.34000, 6.0
18.36000, 8.0
18.38000, 8.0
18.40000, 8.0
18.42000, 4.0
18.44000, 7.0
18.46000, 11.0
18.48000, 9.0
18.50000, 12.0
18.52000, 5.0
18.54000, 9.0
18.56000, 8.0
18.58000, 8.0
18.60000, 4.0
18.62000, 5.0
18.64000, 3.0
18.66000, 7.0
18.68000, 8.0
18.70000, 7.0
18.72000, 5.0
18.74000, 10.0
18.76000, 11.0
18.78000, 5.0
18.80000, 5.0
18.82000, 7.0
18.84000, 5.0
18.86000, 13.0
18.88000, 2.0
18.90000, 8.0
18.92000, 5.0
18.94000, 8.0
18.96000, 8.0
18.98000, 3.0
19.00000, 4.0
19.02000, 11.0
19.04000, 3.0
19.06000, 8.0
19.08000, 5.0
19.10000, 6.0
19.12000, 7.0
19.14000, 0.0
19.16000, 3.0
19.18000, 5.0
19.20000, 6.0
19.22000, 4.0
19.24000, 1.0
19.26000, 3.0
19.28000, 8.0
19.30000, 10.0
19.32000, 5.0
19.34000, 9.0
19.36000, 5.0
19.38000, 4.0
19.40000, 4.0
19.42000, 3.0
19.44000, 2.0
19.46000, 6.0
19.48000, 9.0
19.50000, 4.0
19.52000, 5.0
19.54000, 1.0
19.56000, 3.0
19.58000, 3.0
19.60000, 2.0
19.62000, 3.0
19.64000, 3.0
19.66000, 2.0
19.68000, 5.0
19.70000, 1.0
19.72000, 3.0
19.74000, 2.0
19.76000, 0.0
19.78000, 3.0
19.80000, 3.0
19.82000, 3.0
19.84000, 2.0
19.86000, 2.0
19.88000, 3.0
19.90000, 0.0
19.92000, 1.0
19.94000, 0.0
19.96000, 3.0
19.98000, 2.0
20.00000, 1.0
20.02000, 3.0
20.04000, 0.0
20.06000, 1.0
20.08000, 0.0
20.10000, 2.0
20.12000, 2.0
20.14000, 1.0
20.16000, 1.0
20.18000, 2.0
20.20000, 1.0
20.22000, 0.0
20.24000, 2.0
20.26000, 2.0
20.27000, 0.0
#ENDOFDATA   :